time,ax,ay,az,fx,fy,fz,tx,ty,tz,
0.001436,-9.7555174717599016,2.0794419166054876,-0.17241878294212526,-9.1981365535995003,0.056293715885553874,0.13696111021458401,-0.0047558130210562516,-0.40186786596033602,0.0087702477874186252,
0.0028969999999999998,-9.7555250498600579,4.1425176654006641,-0.17239480040862204,-9.2066004919984898,0.4272899151018017,0.11577194850863323,-0.0064835481261690947,-0.40255969394245261,0.0084711758096271735,
0.0043239999999999997,-9.7555326279602141,6.2055934141958407,-0.17237081787511882,-9.2120939783273545,0.51986143470480406,0.12174704050993693,-0.0062143055280698967,-0.40229298253161899,0.0085108136334355114,
0.0052040000000000003,-9.7531172667540993,0.02229693555957013,-0.15090921635172885,-9.2121010433591994,2.4432585347899711,0.12176939932803643,-0.090649117812507951,-0.40229329893679028,0.0090492209523887479,
0.0057489999999999998,-9.7531248448542556,2.0853726843547471,-0.15088523381822563,-9.2218885553288512,0.95084918245683081,0.11278446604705801,-0.008381746458398287,-0.40383072933867542,0.0088720607272521641,
0.0071799999999999998,-9.7531324229544119,4.1484484331499241,-0.15086125128472241,-9.2351261579454516,0.64569662263501115,0.11607712799965385,-0.0074784072769289583,-0.40410253680689845,0.0082485622759921138,
0.0085979999999999997,-9.7531400010545681,6.2115241819451015,-0.15083726875121919,-9.2536241063292675,0.56145419788071216,0.11255413815174123,-0.0069374233270999563,-0.405044250844249,0.0085065679136028909,
0.0091409999999999998,-9.7547065695162427,1.7246841650749536,-0.1508570190461698,-9.2536311713611124,2.4848512979658794,0.11257649696984073,-0.091372235611538011,-0.40504456724942028,0.0090449752325561274,
0.010023000000000001,-9.7547065695162427,1.7246841650749536,-0.15086412727050849,-9.2519536377994225,0.57018863614008364,0.12455934511091105,-0.0075910350562389678,-0.40444202409177371,0.0081462687882073587,
0.011448,-9.7547065695162427,1.7246841650749536,-0.15087123549484718,-9.2864341587593788,0.22086135346277885,0.16064607300009071,-0.011986117383707088,-0.40536551450886288,0.0083949652435478927,
0.012886,-9.7547065695162427,1.7246841650749536,-0.15087834371918588,-9.3487866179561951,0.016970527551121467,0.17286689642945871,0.002221799935394897,-0.4108117669077293,0.0077459784280685369,
0.013103999999999999,-9.7552017818693653,0.38692139930281844,-0.15207703451886154,-9.3487866179561951,0.016970527551121467,0.17286026946092023,0.0022217995749293984,-0.41081176505267514,0.0077459784280685369,
0.014319,-9.7552017818693653,0.38692139930281844,-0.15208414274320023,-9.3562873264802793,0.035065368518869253,0.18530207154155562,-0.0041324688283082096,-0.40985198606570106,0.0076094020800912283,
0.015737999999999999,-9.7552017818693653,0.38692139930281844,-0.15209125096753892,-9.2928755445155922,0.079378960462628212,0.20109562494597089,-0.0089755036241359904,-0.4030925765018934,0.008249517487790424,
0.017070999999999999,-9.7889956282532324,0.15430691532854435,-0.10040941480019161,-9.2928755445155922,0.079378960462628212,0.2010889979774324,-0.0089755039846014899,-0.40309257464683923,0.008249517487790424,
0.017180000000000001,-9.7889956282532324,0.15430691532854435,-0.1004165230245303,-9.2444891995479779,-0.016649428580290393,0.13052022959860965,0.0036873061882753098,-0.40156357664280878,0.0081383725661846491,
0.018627000000000001,-9.7889956282532324,0.15430691532854435,-0.10042363124886899,-9.2519488547084467,0.18845904910963085,0.16130471426761495,-0.012407195324840446,-0.40365122745070947,0.0087515617293673197,
0.020055,-9.7889956282532324,0.15430691532854435,-0.10042839757277143,-9.33049122352854,0.21028962185105365,0.16328343420396005,-0.017425223089280691,-0.4098851873275664,0.0094124984801601582,
0.020967,-9.7832097752788929,0.048225144706253484,-0.073730558297407406,-9.33049122352854,0.21028962185105365,0.16327899057963971,-0.017425223330985964,-0.40988518608368485,0.0094124984801601582,
0.021492000000000001,-9.7832097752788929,0.048225144706253484,-0.073735324621309842,-9.3980297903637844,-0.033108304574366282,0.16925084726265602,0.0072677160887752341,-0.41055045142205238,0.0076572252851637157,
0.022911999999999998,-9.7832097752788929,0.048225144706253484,-0.073740090945212278,-9.4074738835583105,0.076369261594579754,0.20351752380572999,-0.0096184910287486301,-0.41335817297742711,0.008471319651832265,
0.024362999999999999,-9.7832097752788929,0.048225144706253484,-0.073744857269114714,-9.3423244553416271,-0.00072112107779771784,0.21979959009629327,0.0004204963136673328,-0.40506028407904676,0.008836839954627522,
0.024902000000000001,-9.7809297916713049,0.025130526751763048,-0.067304913805274855,-9.3423244553416271,-0.00072112107779771784,0.21979514647197293,0.00042049607196205726,-0.40506028283516521,0.008836839954627522,
0.025808000000000001,-9.7809297916713049,0.025130526751763048,-0.067309680129177291,-9.3060490185084248,0.014620706338561079,0.1825677357800834,-0.0017404533566023088,-0.40475494757644648,0.008417717358202511,
0.027241000000000001,-9.7809297916713049,0.025130526751763048,-0.067314446453079727,-9.3488562150611116,0.21334606610646553,0.16372514480145325,-0.018769675563403084,-0.41026705414509085,0.008052660205706854,
0.028642999999999998,-9.7809297916713049,0.025130526751763048,-0.067319212776982162,-9.4167617296161925,0.12349024908114101,0.1574987529442721,-0.0057087831491965668,-0.41324635582178804,0.0091869380340030785,
0.028843000000000001,-9.8775325290083629,0.0633290418205643,-0.059416993130565754,-9.4167617296161925,0.12349024908114101,0.15749430931995176,-0.0057087833909018424,-0.41324635457790648,0.0091869380340030785,
0.030075999999999999,-9.8775325290083629,0.0633290418205643,-0.059443873769727103,-9.4066769102333776,0.13486371418332549,0.15842917392630745,-0.010420518070137025,-0.41032273402986125,0.0087767112360186295,
0.031517999999999997,-9.8775325290083629,0.0633290418205643,-0.059470754408888452,-9.3570788103301989,0.055186345345290641,0.16842866712708909,-0.004087777014720342,-0.41019502462633445,0.0088731395228523642,
0.032799000000000002,-9.9562833808256155,0.075340001045895888,-0.055221521230642487,-9.3570788103301989,0.055186345345290641,0.16840360641691324,-0.0040877783778656982,-0.41019501761121513,0.0088731395228523642,
0.032983999999999999,-9.9562833808256155,0.075340001045895888,-0.055248401869803836,-9.2995890176848981,-0.026521591135251418,0.15775914982633601,0.003389254360565256,-0.40399027172786139,0.0093577126475544292,
0.034370999999999999,-9.9562833808256155,0.075340001045895888,-0.055275282508965184,-9.3127211983450238,0.1577445960697243,0.16030223427502494,-0.014449379570852423,-0.40514095156122487,0.0082185773501086152,
0.035809000000000001,-9.9562833808256155,0.075340001045895888,-0.055302163148126533,-9.3305391211315349,0.17797312101109392,0.13597441387087447,-0.011246797608575226,-0.40858432166869008,0.0077407856925140123,
0.036727000000000003,-9.9870775937895129,0.077923934374241124,-0.067442521147613219,-9.3305391211315349,0.17797312101109392,0.13594935316069862,-0.011246798971720583,-0.40858431465357076,0.0077407856925140123,
0.037238,-9.9870775937895129,0.077923934374241124,-0.067469401786774574,-9.3160861327723765,0.15700769475485254,0.11018676715139952,-0.0083708517177920796,-0.40612680672269086,0.0090227953864857307,
0.038689000000000001,-9.9870775937895129,0.077923934374241124,-0.06749628242593593,-9.2733470635578463,0.19823738552256484,0.11603870423491773,-0.015456901285395178,-0.40258522486524262,0.008132241417419318,
0.040118000000000001,-9.9870775937895129,0.077923934374241124,-0.067501722756685506,-9.2439798822831136,0.050220669187827416,0.10985191220019223,-0.0016148881829143053,-0.40419675672455613,0.0084748596289883852,
0.040647999999999997,-9.8566870106093827,0.20982415887385958,-0.10949785089939676,-9.2439798822831136,0.050220669187827416,0.1098468402020393,-0.0016148884587991739,-0.40419675530477706,0.0084748596289883852,
0.041537999999999999,-9.8566870106093827,0.20982415887385958,-0.10950329123014634,-9.2203083393810523,0.065758076705243279,0.12574230376845352,-0.0047289294270755743,-0.40107540038713474,0.0084063259171141252,
0.042967999999999999,-9.8566870106093827,0.20982415887385958,-0.10950873156089591,-9.2153533642039065,0.14020790487654633,0.11478710259652478,-0.011055793343645854,-0.39970528040730058,0.0088847062018360904,
0.044407000000000002,-9.8566870106093827,0.20982415887385958,-0.10951417189164549,-9.2340732555636009,0.1341681738064307,0.09717251590430187,-0.0080258688435712496,-0.40598515015697489,0.0092278617188479226,
0.044585,-9.7792076762390607,0.10322533871622531,-0.13204840975916904,-9.2340732555636009,0.1341681738064307,0.09716744390614894,-0.0080258691194561183,-0.40598514873719582,0.0092278617188479226,
0.045844000000000003,-9.7792076762390607,0.10322533871622531,-0.1320538500899186,-9.1992616688655211,0.21956975409767199,0.087864356648165623,-0.01516128672264198,-0.39789296410298214,0.0091073835148070565,
0.047258000000000001,-9.7792076762390607,0.10322533871622531,-0.13205929042066816,-9.1681017674472916,0.13293593484260749,0.070736546950065482,-0.0072388549690268981,-0.396857023284786,0.0080045104743652687,
0.048544999999999998,-9.7487548433059974,0.080170789291380218,-0.12411629683456392,-9.1681017674472916,0.13293593484260749,0.070731474951912551,-0.0072388552449117669,-0.39685702186500693,0.0080045104743652687,
0.048698999999999999,-9.7487548433059974,0.080170789291380218,-0.12412173716531349,-9.1436035613190985,0.05745692269274176,0.075455358088647714,-0.002765167103036475,-0.39865690357080125,0.0084117902116274505,
0.050133999999999998,-9.7487548433059974,0.080170789291380218,-0.12412105635031639,-9.1424206064443947,0.11273294554542237,0.089476220647119034,-0.0099822289052862549,-0.40093933524537589,0.0086929306078176467,
0.051588000000000002,-9.7487548433059974,0.080170789291380218,-0.12412037553531929,-9.1522601297393873,0.067325531693840299,0.074233854085637097,-0.0032338731778036485,-0.39484671745603012,0.0068552938977004584,
0.052468000000000001,-9.7092201633645914,0.12776053246366167,-0.146537383845394,-9.1522601297393873,0.067325531693840299,0.074234488806680127,-0.0032338731432788072,-0.39484671763370438,0.0068552938977004584,
0.053017000000000002,-9.7092201633645914,0.12776053246366167,-0.1465367030303969,-9.1875493197634768,0.12187900805262813,0.064795619673998592,-0.0093749004411922757,-0.40553367273847524,0.0070610147208965161,
0.054457999999999999,-9.7092201633645914,0.12776053246366167,-0.1465360222153998,-9.1459159253706428,0.17079905822396704,0.070769471194091604,-0.013805405370962798,-0.39604983747414452,0.0089451310115660904,
0.055863999999999997,-9.7092201633645914,0.12776053246366167,-0.1465353414004027,-9.1081223969413703,0.076829874333170123,0.063609190079338365,-0.0047518552231523951,-0.39538597938158537,0.0086286122285867579,
0.056411000000000003,-9.7038694676569399,0.14558196855289748,-0.15856254516649843,-9.1081223969413703,0.076829874333170123,0.063609824800381395,-0.0047518551886275538,-0.39538597955925964,0.0086286122285867579,
0.057298000000000002,-9.7038694676569399,0.14558196855289748,-0.15856186435150132,-9.0775470891205856,0.054131554539836577,0.064096558824884478,-0.0048437305490534608,-0.39335246326283174,0.0074495788655085781,
0.058751999999999999,-9.7038694676569399,0.14558196855289748,-0.15856118353650422,-9.1306279429534083,0.052814311428151003,0.092412962825399028,-0.0042030492174987182,-0.4014760579356938,0.009396080453436163,
0.060174999999999999,-9.7038694676569399,0.14558196855289748,-0.15855951553976133,-9.1430482771841657,0.049238513136053735,0.074581182591600167,-0.0034127506867835675,-0.39699236588295783,0.0090666226001426299,
0.060366000000000003,-9.7017691688459333,0.14943078254558423,-0.19951232773930566,-9.1430482771841657,0.049238513136053735,0.074582737658155582,-0.0034127506021977062,-0.39699236631825985,0.0090666226001426299,
0.061637999999999998,-9.7017691688459333,0.14943078254558423,-0.19951065974256277,-9.2073003169558767,0.086811211399486971,0.074891171671198298,-0.0080727937246728929,-0.40448364585142377,0.0085857798870885588,
0.063083,-9.7017691688459333,0.14943078254558423,-0.19950899174581987,-9.2240931836857012,0.090672613155323781,0.072814837700496848,-0.0071680440195021344,-0.40343644845891002,0.0096370699431645689,
0.064308000000000004,-9.6907548209567693,0.063867383669794373,-0.16691483316747846,-9.2240931836857012,0.090672613155323781,0.072816392767052263,-0.0071680439349162735,-0.40343644889421204,0.0096370699431645689,
0.064473000000000003,-9.6907548209567693,0.063867383669794373,-0.16691316517073557,-9.1936773599179222,0.096321144751415302,0.079272248595795194,-0.0065130234821708499,-0.39865534091190796,0.0084636144551141681,
0.065914,-9.6907548209567693,0.063867383669794373,-0.16691149717399267,-9.1729047109680728,0.046620229385432893,0.080500519282705296,-0.0044794249779404396,-0.39837366721800327,0.0081775691502175459,
0.067343,-9.6907548209567693,0.063867383669794373,-0.16690982917724978,-9.1680590059257021,0.013885486197812866,0.10251227201011835,-0.00087629941072558991,-0.39950396276832428,0.0090272851347411986,
0.068251999999999993,-9.7097377951152257,0.058545852542774862,-0.14945681763418819,-9.1680590059257021,0.013885486197812866,0.10251382707667377,-0.0008762993261397287,-0.3995039632036263,0.0090272851347411986,
0.068796999999999997,-9.7097377951152257,0.058545852542774862,-0.1494551496374453,-9.2460202656902535,0.052858298393312318,0.11309581772422649,-0.0074779912456801627,-0.40595886218877764,0.0090721977753769941,
0.070210999999999996,-9.7097377951152257,0.058545852542774862,-0.14945125455043157,-9.2550823988199475,0.069678589789299944,0.1102289198315885,-0.0053905071252583281,-0.40092529749512495,0.0081443101317092929,
0.071618000000000001,-9.7097377951152257,0.058545852542774862,-0.14944735946341783,-9.3102464158604867,0.06975275965386743,0.10945212547725815,-0.0061337336920209368,-0.4097892865479541,0.0090631905193680577,
0.072187000000000001,-9.7171760158392697,0.057397995634423944,-0.17679428374834114,-9.3102464158604867,0.06975275965386743,0.1094557568509831,-0.006133733494496996,-0.40978928756446642,0.0090631905193680577,
0.073052000000000006,-9.7171760158392697,0.057397995634423944,-0.1767903886613274,-9.3061366658476175,0.090368725397763944,0.13150689658437359,-0.0078325081777737091,-0.40339803880889458,0.0087565939187830844,
0.074493000000000004,-9.7171760158392697,0.057397995634423944,-0.17678649357431367,-9.3180592993078175,0.027980553712381881,0.13999962057463869,-0.0030178166534851284,-0.4093632653960288,0.0084455971827016186,
0.075922000000000003,-9.7171760158392697,0.057397995634423944,-0.17678259848729994,-9.2605789593804815,0.012258215555903711,0.1539554353360359,-0.0015803159029911496,-0.40250557911976537,0.0089726506810931181,
0.076123999999999997,-9.7957696217500292,0.072171491475957708,-0.17143134450010192,-9.2605789593804815,0.012258215555903711,0.15395906670976087,-0.0015803157054672088,-0.40250558013627769,0.0089726506810931181,
0.077341999999999994,-9.7957696217500292,0.072171491475957708,-0.17142744941308818,-9.2565634985628513,0.018306856920091277,0.1712633278247277,-0.0030884774691151699,-0.40471235113502579,0.0089992174950500863,
0.078783000000000006,-9.7957696217500292,0.072171491475957708,-0.17142355432607445,-9.2597726299177072,0.049254212596524787,0.15806649510346837,-0.0039749147334372324,-0.40311733608454203,0.0082930411600851076,
0.080060000000000006,-9.8266045013566981,-0.0091272451676621125,-0.16855990799559811,-9.2597726299177072,0.049254212596524787,0.15807012647719335,-0.0039749145359132916,-0.40311733710105435,0.0082930411600851076,
0.080221000000000001,-9.8266045013566981,-0.0091272451676621125,-0.16855341859083028,-9.3242080915326166,0.082951994392927733,0.15922763428751532,-0.007963145362329881,-0.40947078985020602,0.009141292801479484,
0.081689999999999999,-9.8266045013566981,-0.0091272451676621125,-0.16854692918606246,-9.3733280605257807,0.091271714493866979,0.15998405966925633,-0.0064726171046597331,-0.4082927504973673,0.0089304801182455342,
0.083068000000000003,-9.8266045013566981,-0.0091272451676621125,-0.16854043978129463,-9.4233688738854227,0.05459812015823292,0.1492314290015514,-0.0043651919486947192,-0.41431547455697837,0.0084977561414053982,
0.084006999999999998,-9.7979377387755164,-0.026701094559802057,-0.12363225808391759,-9.4233688738854227,0.05459812015823292,0.14923747904712972,-0.0043651916196102087,-0.41431547625053738,0.0084977561414053982,
0.084542999999999993,-9.7979377387755164,-0.026701094559802057,-0.12362576867914976,-9.4395697187988787,0.037948135900325822,0.15994190642392458,-0.0046632651696390873,-0.41215634212691227,0.0085641748811812867,
0.085944000000000007,-9.7979377387755164,-0.026701094559802057,-0.12361927927438193,-9.3760858550351838,0.017283363004399921,0.15473814589305854,-0.0025016489750534121,-0.4077610427833992,0.0086002061483795682,
0.087400000000000005,-9.7979377387755164,-0.026701094559802057,-0.1236127898696141,-9.2745015964239617,0.033517209971569109,0.15648486993976279,-0.0036072477604423107,-0.40268957551124912,0.0081487497671674635,
0.087960999999999998,-9.9236717359802622,0.063459367510422332,-0.10957228179126603,-9.2745015964239617,0.033517209971569109,0.15649091998534112,-0.0036072474313578002,-0.40268957720480814,0.0081487497671674635,
0.088803000000000007,-9.9236717359802622,0.063459367510422332,-0.1095657923864982,-9.2524491474558435,0.10955821217835429,0.14837443735624412,-0.0087562295069120166,-0.40258394305546141,0.0082691089036939329,
0.090247999999999995,-9.9236717359802622,0.063459367510422332,-0.10955312056263396,-9.2820467654611125,0.098527791995721731,0.13196294997294686,-0.0076916210803464205,-0.4046332135630954,0.0081423897564010111,
0.091702000000000006,-9.9236717359802622,0.063459367510422332,-0.10954044873876971,-9.3485606571442634,0.10190030055319042,0.13677790251553495,-0.0074560404532039949,-0.40977206571561364,0.0080903057761482714,
0.091869000000000006,-9.9727848643193475,0.099723005402539949,-0.10205673248627481,-9.3485606571442634,0.10190030055319042,0.1367897164052031,-0.0074560398106025393,-0.4097720690226167,0.0080903057761482714,
0.093112,-9.9727848643193475,0.099723005402539949,-0.10204406066241056,-9.4162397798345534,0.086794622952341735,0.15217689499748141,-0.0054302261444278627,-0.41549045394537942,0.0085397317726629059,
0.094534000000000007,-9.9727848643193475,0.099723005402539949,-0.10203138883854632,-9.3667522889980219,0.047908811141126245,0.14680609761868796,-0.0030763010019844001,-0.40893995866441629,0.0083184996509520718,
0.095895999999999995,-9.86494211359018,0.107630840433189,-0.11029271354377952,-9.3667522889980219,0.047908811141126245,0.1468179115083561,-0.0030763003593829441,-0.40893996197141935,0.0083184996509520718,
0.095971000000000001,-9.86494211359018,0.107630840433189,-0.11028004171991528,-9.2858618516121521,0.054571305562518886,0.14883882162792558,-0.005519832748634379,-0.40490480755233438,0.0085360027429456555,
0.097436999999999996,-9.86494211359018,0.107630840433189,-0.11026736989605103,-9.1888136933644926,0.09667085443094886,0.12878442697524436,-0.0072819294926759551,-0.39608460923617778,0.0084533390724877491,
0.098847000000000004,-9.86494211359018,0.107630840433189,-0.11025469807218678,-9.1945683632818778,0.1405861733194769,0.10205489538764717,-0.0086426194300745999,-0.40153576155446102,0.0082874382631211701,
0.099877999999999995,-9.8551666530812447,0.034050754086247581,-0.10351084992607705,-9.1945683632818778,0.1405861733194769,0.10206670927731532,-0.0086426187874731435,-0.40153576486146408,0.0082874382631211701,
0.100273,-9.8551666530812447,0.034050754086247581,-0.10348618750596081,-9.1760686429312592,0.17045828448761996,0.070540026506947837,-0.012078916446117556,-0.39799827555471501,0.0083751482073449613,
0.10169,-9.8551666530812447,0.034050754086247581,-0.10346152508584457,-9.2551260712618753,0.14918573510426689,0.043285087503008149,-0.0097958688269769358,-0.40488536090062127,0.0085500479621774764,
0.10316400000000001,-9.8551666530812447,0.034050754086247581,-0.10343686266572832,-9.3250245000006853,0.13366487645926248,0.043836862087415614,-0.0083055047791225842,-0.40994981250133544,0.0078280408053100457,
0.103781,-9.851371141620124,0.13083365516317852,-0.099883251731797726,-9.3250245000006853,0.13366487645926248,0.043859854761029451,-0.0083055035284654386,-0.40994981893755961,0.0078280408053100457,
0.10456699999999999,-9.851371141620124,0.13083365516317852,-0.099858589311681484,-9.3140514586550296,0.12085876393232893,0.058838686252235733,-0.0078453969452593735,-0.40640195432111237,0.0083776136439919838,
0.10601099999999999,-9.851371141620124,0.13083365516317852,-0.099833926891565242,-9.244464399526187,0.095418735702983482,0.041899450580432526,-0.0070329906183644918,-0.40375599990580641,0.0086249704589466628,
0.107447,-9.851371141620124,0.13083365516317852,-0.099809264471449,-9.1277731856334832,0.13203896657434455,0.073957621900950982,-0.0091628565800673245,-0.39232135962921733,0.0083165954422001892,
0.107705,-9.8207997312941888,0.15186128942031879,-0.19343477862992986,-9.1277731856334832,0.13203896657434455,0.073980614574564826,-0.009162855329410179,-0.39232136606544149,0.0083165954422001892,
0.108871,-9.8207997312941888,0.15186128942031879,-0.1934101162098136,-9.0854600333922537,0.14214065004470464,0.070556023283902147,-0.0076677353109046876,-0.39760798148015009,0.0079376785661900134,
0.110301,-9.8207997312941888,0.15186128942031879,-0.19339662730479903,-9.0401186302832137,0.16336789223898271,0.07412897964067662,-0.0097849456125301375,-0.38966656717464998,0.0087713040234723965,
0.111696,-9.7211486412025039,0.150781832715919,-0.1847491214880696,-9.0401186302832137,0.16336789223898271,0.074141555291766248,-0.0097849449284936416,-0.38966657069488914,0.0087713040234723965,
0.111719,-9.7211486412025039,0.150781832715919,-0.18473563258305503,-9.0988757126364384,0.14123525484895047,0.082902240192957194,-0.0068291646365696099,-0.39783277582360443,0.008565482766276545,
0.113152,-9.7211486412025039,0.150781832715919,-0.18472214367804046,-9.2225427922556946,0.11457767247878192,0.062721681817960742,-0.0083866688269140649,-0.40396222649624819,0.0087180753921622684,
0.11459999999999999,-9.7211486412025039,0.150781832715919,-0.18470865477302589,-9.334265733103658,0.099498897142577342,0.10090243365488716,-0.0047333737872008097,-0.41164869134675158,0.009162750610888129,
0.115609,-9.6823961490558386,0.11678565979673186,-0.18012309114453942,-9.334265733103658,0.099498897142577342,0.10091500930597679,-0.004733373103164313,-0.41164869486699074,0.009162750610888129,
0.11602700000000001,-9.6823961490558386,0.11678565979673186,-0.18010960223952485,-9.3512623604709511,0.11617361090103395,0.085914470866172571,-0.0087332069551687812,-0.4091209643666413,0.009039387737529948,
0.117442,-9.6823961490558386,0.11678565979673186,-0.18009611333451028,-9.2426988476988363,0.11507869881529195,0.081790313791400213,-0.0072027533715599947,-0.40229727810372679,0.0086836547782484803,
0.118885,-9.6823961490558386,0.11678565979673186,-0.18008262442949571,-9.1323208714968693,0.14537312299366731,0.093049781869729689,-0.0094484876811109127,-0.39335861302900632,0.0088260879836244022,
0.119542,-9.726806219377174,0.10941148928169613,-0.17319761368304631,-9.1323208714968693,0.14537312299366731,0.093062357520819317,-0.0094484869970744168,-0.39335861654924548,0.0088260879836244022,
0.120338,-9.726806219377174,0.10941148928169613,-0.17319525073923744,-9.0800403684976274,0.13345863739557998,0.085046787966412588,-0.010229423281709079,-0.39425782349777055,0.0082259165029217474,
0.12178899999999999,-9.726806219377174,0.10941148928169613,-0.17319288779542857,-9.1095970957926085,0.10889121548210652,0.11611043244243568,-0.0055021400717920515,-0.39596285547675553,0.0086527715205342234,
0.12321,-9.726806219377174,0.10941148928169613,-0.1731905248516197,-9.2801137171974659,0.083255184024134857,0.11284992960644291,-0.0066565468174579661,-0.40803189732047634,0.008714177824508864,
0.12348000000000001,-9.6438282798850867,0.090917348140737542,-0.16061526544859228,-9.2801137171974659,0.083255184024134857,0.11285213256931149,-0.0066565466976306114,-0.40803189793714073,0.008714177824508864,
0.124612,-9.6438282798850867,0.090917348140737542,-0.16061290250478341,-9.4500115459149843,0.055010463969901877,0.13212414623390348,-0.0037673811905203749,-0.41585736483097047,0.0088720654706183812,
0.12604899999999999,-9.6438282798850867,0.090917348140737542,-0.16061053956097454,-9.5935558880831895,0.073268749345847817,0.13570145863061547,-0.0061814941982340568,-0.42278806194039886,0.0090370618972831565,
0.127443,-9.6112207145501536,0.11699417904402415,-0.15386247652056789,-9.5935558880831895,0.073268749345847817,0.13570366159348404,-0.0061814940784067022,-0.42278806255706325,0.0090370618972831565,
0.12749199999999999,-9.6112207145501536,0.11699417904402415,-0.15386011357675902,-9.6940657840624063,0.081624484886571605,0.14964033824549933,-0.0056262414828368518,-0.42929344780587825,0.0084279311835698811,
0.12892500000000001,-9.6112207145501536,0.11699417904402415,-0.15385775063295015,-9.65094902295208,0.084596500998607008,0.1546724293452019,-0.0068501930421034814,-0.4230120573851458,0.0083573275475843038,
0.13034499999999999,-9.6112207145501536,0.11699417904402415,-0.15388577751699753,-9.5104595933455638,0.07265768337517442,0.16332856036336349,-0.0049676462633775481,-0.41254329613418866,0.0089415816877267962,
0.131354,-9.9254980144340355,0.12259245804993442,-0.14140800350442065,-9.5104595933455638,0.07265768337517442,0.16330243101375883,-0.0049676476846501833,-0.41254328881993046,0.0089415816877267962,
0.13178000000000001,-9.9254980144340355,0.12259245804993442,-0.14143603038846803,-9.4237150945247503,0.057131089794293578,0.18221064673479753,-0.0049814898045913106,-0.40669709657978809,0.0077895474791894563,
0.133217,-9.9254980144340355,0.12259245804993442,-0.1414640572725154,-9.478178488800058,0.022528828346798792,0.20082693746219552,-0.0022404625086740585,-0.41369434335957278,0.0081358576281060739,
0.134633,-9.9254980144340355,0.12259245804993442,-0.14149208415656278,-9.6303119806907276,0.039798412837363406,0.20999100488704436,-0.0047514955736408628,-0.42599630433236635,0.008215157120560989,
0.135295,-9.9357272690198588,0.050571462535419817,-0.089179553871221895,-9.6303119806907276,0.039798412837363406,0.2099648755374397,-0.004751496994913498,-0.42599629701810815,0.008215157120560989,
0.13606499999999999,-9.9357272690198588,0.050571462535419817,-0.089207580755269272,-9.780570118598142,0.082189204227637036,0.21618504362702845,-0.006605942158784588,-0.43367459827680266,0.0085548637328969768,
0.13750699999999999,-9.9357272690198588,0.050571462535419817,-0.08923560763931665,-9.8539317724961695,0.084592981937637327,0.19931489772707733,-0.0071437444797244473,-0.43615862314015369,0.0078440458216193065,
0.13894500000000001,-9.9357272690198588,0.050571462535419817,-0.089263634523364027,-9.7882106091750991,0.089326392302556373,0.20595220579393969,-0.0072865904128269435,-0.43146183407578087,0.0079311497196682661,
0.139205,-9.9397337917915589,0.057545200230028279,-0.061236724591276478,-9.7882106091750991,0.089326392302556373,0.20592607644433503,-0.0072865918340995787,-0.43146182676152267,0.0079311497196682661,
0.140373,-9.9397337917915589,0.057545200230028279,-0.061288348935738583,-9.5895378559768432,0.06973724025536758,0.20649168907303897,-0.0054004919284953443,-0.41367419637084424,0.008613474232875314,
0.14182800000000001,-9.9397337917915589,0.057545200230028279,-0.061339973280200688,-9.4735611795634984,0.044450985892904887,0.21816927404971032,-0.0051170995689154685,-0.40923462232818403,0.0083515392342911835,
0.14313699999999999,-10.291864559523367,0.059059420272288686,-0.055135642403769308,-9.4735611795634984,0.044450985892904887,0.21812114488407489,-0.0051171021868400279,-0.40923460885562729,0.0083515392342911835,
0.14326800000000001,-10.291864559523367,0.059059420272288686,-0.055187266748231413,-9.4938896951682281,0.022035728243684983,0.22866332498549868,-0.0026482268049808568,-0.4105159482635235,0.0081774435124771158,
0.144673,-10.291864559523367,0.059059420272288686,-0.055238891092693518,-9.6952956730506425,0.034922126499517078,0.24545260796334956,-0.0027553384691919891,-0.43015934646028275,0.0087146288189856765,
0.14611199999999999,-10.291864559523367,0.059059420272288686,-0.055290515437155623,-9.8758824897875108,0.061148690674368442,0.23862640248691369,-0.006488925895274421,-0.43943676396071574,0.0086113639606345931,
0.14707700000000001,-10.160945826045024,0.027463525262000896,-0.038550085419394226,-9.8758824897875108,0.061148690674368442,0.23857827332127826,-0.0064889285131989804,-0.439436750488159,0.0086113639606345931,
0.14754400000000001,-10.160945826045024,0.027463525262000896,-0.03860170976385633,-10.002477452513741,0.060706116058667992,0.24631500136360071,-0.0071684629721498437,-0.44471977067047008,0.0085583077652178052,
0.14896699999999999,-10.160945826045024,0.027463525262000896,-0.038653334108318435,-9.9312940145104189,0.06331109722729393,0.24501243090708494,-0.0061078893573384982,-0.43968372887238033,0.0089448080705320752,
0.15040500000000001,-10.160945826034709,0.027463525262000896,-0.038750176947042629,-9.6807936979752807,0.031446544082863508,0.25753553897711229,-0.0031854980198134921,-0.41481555223987127,0.0091390291246289338,
0.15096000000000001,-10.109760413118323,0.020657539405584714,-0.029741672368748109,-9.6807936979656635,0.031446544082863508,0.25744525279383718,-0.0031855029308152406,-0.4148155269660892,0.0091390291246284099,
0.15184,-10.109760413108008,0.020657539405584714,-0.029838515207472303,-9.4914066535169006,0.0064998271331495501,0.25277223271679355,-0.0016738533860336977,-0.40932694604430286,0.008341147932689889,
0.15325900000000001,-10.109760413097693,0.020657539405584714,-0.029935358046196497,-9.3933830852531361,0.01206533959404037,0.24088459675722698,-0.0019827663455119944,-0.40019746529579114,0.0086139365639346741,
0.154691,-10.109760413087377,0.020657539405584714,-0.030032200884920691,-9.6422541630286922,0.058146732593495148,0.21789317820663381,-0.0043523151173535148,-0.42816001627369793,0.0088649639878739216,
0.154888,-10.341060972818843,0.0097886021957639506,-0.01283777537387909,-9.642254163019075,0.058146732593495148,0.21780289202335873,-0.0043523200283552632,-0.42815999099991586,0.0088649639878733977,
0.15612400000000001,-10.341060972808528,0.0097886021957639506,-0.012934618212603284,-9.8505525501843856,0.10999190430577048,0.1833159694119974,-0.007620090686704559,-0.43685742899796132,0.0085156424284644899,
0.15756500000000001,-10.341060972798212,0.0097886021957639506,-0.013031461051327478,-10.029532494851939,0.11321655058737899,0.17776948349831809,-0.0086448125899960503,-0.44976391426054774,0.0092574144154375562,
0.158804,-10.322934469584299,0.056209882537041525,-0.0037175726314774178,-10.029532494842321,0.11321655058737899,0.177679197315043,-0.0086448175009977979,-0.44976388898676567,0.0092574144154370323,
0.15898599999999999,-10.322934469573983,0.056209882537041525,-0.0038144154702016123,-9.9509608056730343,0.093495088086209266,0.16417686583026228,-0.0073590442361064854,-0.43897129569257393,0.0081974553703547393,
0.16042200000000001,-10.322934469573983,0.056209882537041525,-0.0039594961145462612,-9.6761765243188727,0.064206116387514944,0.15743842420449272,-0.0050194678757105975,-0.41405983567424953,0.0084549574780072075,
0.161858,-10.322934469573983,0.056209882537041525,-0.0041045767588909097,-9.4009006575714853,0.044994570257056637,0.15228055854018385,-0.0040349637783480934,-0.4039469810719829,0.0081455965537049098,
0.16272900000000001,-10.315803225246025,0.066275743895090139,-0.056681136407082153,-9.4009006575714853,0.044994570257056637,0.15214530044761312,-0.0040349711355394712,-0.40394694320986124,0.0081455965537049098,
0.163304,-10.315803225246025,0.066275743895090139,-0.056826217051426799,-9.1825467249914237,0.088392985644755701,0.15361024946839508,-0.0057230585099011869,-0.38706187447431545,0.00813126383025016,
0.16475100000000001,-10.315803225246025,0.066275743895090139,-0.056971297695771445,-9.3599162036869501,0.13822025857548717,0.1504071334609621,-0.0075979111757296719,-0.41020485712168053,0.0085457840060315544,
0.166158,-10.315803225246025,0.066275743895090139,-0.05711637834011609,-9.6214258085968165,0.18680959568793945,0.15519663414490353,-0.011362353865598841,-0.42831863478919907,0.0087010691122381655,
0.16666300000000001,-10.109317837934112,0.066578540351846641,-0.07291776781526868,-9.6214258085968165,0.18680959568793945,0.15506137605233281,-0.011362361222790218,-0.42831859692707741,0.0087010691122381655,
0.16758100000000001,-10.109317837934112,0.066578540351846641,-0.073062848459613333,-9.8219317668641963,0.15939257657860476,0.15609228312625983,-0.010273531428874272,-0.43880271987120101,0.0087631771244023743,
0.169049,-10.109317837934112,0.066578540351846641,-0.073207929103957986,-9.7824601024338946,0.099623911339562055,0.15646657787458118,-0.0063443645165355148,-0.43377496955825695,0.008517518705673896,
0.17044300000000001,-10.109317837934112,0.066578540351846641,-0.07341466270397963,-9.4925121666800969,0.080211315856815263,0.16054260731400066,-0.0074110822769036843,-0.40702598085306896,0.0086191297805530438,
0.17056199999999999,-10.305734143573044,0.14349972629584978,-0.081672353461541156,-9.4925121666800969,0.080211315856815263,0.16034987042249099,-0.007411092760580996,-0.40702592690119443,0.0086191297805530438,
0.171898,-10.305734143573044,0.14349972629584978,-0.0818790870615628,-9.270475876168172,0.10902406699632898,0.13839351251393414,-0.0061263533517676733,-0.39912692747947748,0.0075224680217766959,
0.173314,-10.305734143573044,0.14349972629584978,-0.082085820661584444,-9.0698714691654523,0.14258865296755496,0.11207713541179778,-0.0085426579720328747,-0.38383964373340629,0.0075691943612966476,
0.17449000000000001,-10.383192340766898,0.1602363593260871,-0.12963120814704399,-9.0698714691654523,0.14258865296755496,0.1118843985202881,-0.0085426684557101864,-0.38383958978153176,0.0075691943612966476,
0.17476800000000001,-10.383192340766898,0.1602363593260871,-0.12983794174706562,-9.162305189068622,0.23335014943854487,0.10823537739210344,-0.015590078789370002,-0.39787711490327865,0.0086340621075647762,
0.176204,-10.383192340766898,0.1602363593260871,-0.13004467534708725,-9.4296642614660318,0.18136606678872214,0.10771305049042186,-0.0093932958782386774,-0.419605125596623,0.0077472475690991789,
0.17762600000000001,-10.383192340766898,0.1602363593260871,-0.13025140894710888,-9.6136288419817078,0.13891528961829155,0.114231755081714,-0.0071683689688486919,-0.42770763387844141,0.0080948520436656974,
0.17843000000000001,-9.843123678989528,0.20704992353117974,-0.15438719222503242,-9.6136288419817078,0.13891528961829155,0.11403901819020432,-0.0071683794525260035,-0.42770757992656688,0.0080948520436656974,
0.17904500000000001,-9.843123678989528,0.20704992353117974,-0.15459392582505405,-9.581344688736678,0.1487279683490024,0.16124996412859163,-0.010479394641283425,-0.42633593187712043,0.0086126570294222746,
0.18048800000000001,-9.843123678989528,0.20704992353117974,-0.15485675445468544,-9.290243526596571,0.059736411110055843,0.14840056426273884,-0.0032898770794850627,-0.39597848250636258,0.0083585328920690698,
0.181924,-9.843123678989528,0.20704992353117974,-0.15511958308431684,-9.0761886658271624,0.097254101338226706,0.15716405235783312,-0.0048907646214050617,-0.38952124873784888,0.0084251726543044924,
0.18237800000000001,-9.6413018840751974,0.13262942577195724,-0.16775544445637722,-9.0761886658271624,0.097254101338226706,0.15691901829917212,-0.0048907779497200576,-0.38952118014668985,0.0084251726543044924,
0.183339,-9.6413018840751974,0.13262942577195724,-0.16801827308600861,-8.8672020688661437,0.17218152534485559,0.16285907684676992,-0.014333161678926209,-0.37510078604806413,0.0075592385006696839,
0.184779,-9.6413018840751974,0.13262942577195724,-0.16828110171564001,-9.0548887525320385,0.073926653279967974,0.14362133313686207,-0.0021043372108891026,-0.39364685668676941,0.0081156222622582215,
0.18621499999999999,-9.6413018840751974,0.13262942577195724,-0.1685439303452714,-9.3622910565540973,0.089715335189082188,0.14483346018965157,-0.0074348085787190651,-0.41858446907269137,0.0086796119469944918,
0.186308,-9.9347056213997291,0.11659247786321765,-0.14937878816016209,-9.3622910565540973,0.089715335189082188,0.14458842613099057,-0.007434821907034061,-0.41858440048153234,0.0086796119469944918,
0.18765899999999999,-9.9347056213997291,0.11659247786321765,-0.14964161678979349,-9.6041653312691402,0.092984391900458346,0.16644215403793153,-0.0089880273663081531,-0.42745147199366601,0.0087271944361464269,
0.18906700000000001,-9.9347056213997291,0.11659247786321765,-0.14990444541942488,-9.71913935398433,0.027148221628953917,0.14037476315762731,-0.00049666510877581331,-0.43725574321514515,0.008447569291790873,
0.19031300000000001,-9.800532862255519,0.079218129269518961,-0.10810362427124331,-9.71913935398433,0.027147259930403886,0.14009482232669543,-0.00049663811839340184,-0.43725566485270784,0.0084475690225874062,
0.19050300000000001,-9.800532862255519,0.079217097731644578,-0.10840389463110171,-9.4756049457694012,0.077169872126362976,0.13582633206557285,-0.0075236162085491713,-0.40536278008804605,0.0087369215698333974,
0.19193099999999999,-9.800532862255519,0.079216066193770196,-0.10870416499096011,-9.3140115250090201,0.10587205727011614,0.11794096577660526,-0.0077799979839503867,-0.40366397185691189,0.008063011793650739,
0.19340399999999999,-9.800532862255519,0.079215034655895813,-0.10900443535081851,-9.1732169842678299,0.093052094347863545,0.11204865387041898,-0.0063081199131703103,-0.39116454674697476,0.0079373858587706361,
0.19430500000000001,-9.4969261456942764,0.086290020332910652,-0.086256373188310129,-9.1732169842678299,0.093051132649313514,0.11176871303948709,-0.0063080929227878986,-0.39116446838453744,0.0079373855895671693,
0.19481499999999999,-9.4969261456942764,0.08628898879503627,-0.086556643548168527,-9.3095419458162016,0.12027931185770775,0.13586655410652254,-0.0092768157604497855,-0.40733277986688982,0.0087982600655060594,
0.19623199999999999,-9.4969261456942764,0.086287957257161887,-0.086856913908026925,-9.5158899471880289,0.047880776388035159,0.14672274095841151,-0.0006974630171820359,-0.42168961964065976,0.008509577599673631,
0.19766600000000001,-9.4969261456942764,0.086286925719287505,-0.087157184267885324,-9.6488653243780806,0.073792969593676525,0.17042395636818819,-0.0060051565338952772,-0.42759507230678501,0.008062752231227396,
0.19822400000000001,-9.7514176766420082,0.087799258418714637,-0.14581217794646539,-9.6488653243780806,0.073792007895126493,0.1701440155372563,-0.0060051295435128655,-0.42759499394434769,0.0080627519620239292,
0.199105,-9.7514176766420082,0.087798226880840255,-0.14611244830632378,-9.6607707762942994,0.055473080342706566,0.17653281723238531,-0.0063402720127204593,-0.42888538605157056,0.0087654572099092696,
0.20053099999999999,-9.7514176766420082,0.087798226880840255,-0.14643389613874355,-9.4231023220808066,0.01715496158130559,0.14157997666141398,0.00011684621793433929,-0.40292832254328326,0.0088012071968094213,
0.20197999999999999,-9.7514176766420082,0.087798226880840255,-0.14675534397116333,-9.3095266944293567,0.10584128758176425,0.13936366079458576,-0.0088957015973467318,-0.40362877664741226,0.0089251093490821925,
0.202152,-10.036066397056505,0.058096978849405262,-0.10995792187041523,-9.3095266944293567,0.10584128758176425,0.13906397629242148,-0.0088957178983028774,-0.40362869275822777,0.0089251093490821925,
0.203403,-10.036066397056505,0.058096978849405262,-0.110279369702835,-9.2616077101638581,0.11106937014933033,0.12294288112604373,-0.0075933804343537884,-0.397051210549765,0.0085366896796854833,
0.20486199999999999,-10.036066397056505,0.058096978849405262,-0.11060081753525478,-9.4877220570504601,0.042371436377961785,0.13917672025598826,-0.0028792841133527579,-0.42208031504356769,0.0094052839587354595,
0.20608000000000001,-10.222020823536861,0.11548432581945181,-0.090579814727223443,-9.4877220570504601,0.042371436377961785,0.13887703575382399,-0.0028793004143089032,-0.4220802311543832,0.0094052839587354595,
0.206291,-10.222020823536861,0.11548432581945181,-0.090901262559643217,-9.6728059359753402,0.069588329405599975,0.15431876443616338,-0.0064588381254832294,-0.42867502425151749,0.0084663115510097003,
0.207701,-10.222020823536861,0.11548432581945181,-0.091222710392062992,-9.794408437060893,0.032552033938427996,0.18248810354892891,-0.0012355035436699083,-0.43631065431279292,0.0089337111361878444,
0.20913899999999999,-10.222020823536861,0.11548432581945181,-0.091544158224482766,-9.6841545398402804,0.040445503193507849,0.16631510328982224,-0.0044710651351260455,-0.42450159285670153,0.008319938782800405,
0.21001700000000001,-9.9225638900936097,0.12790454190237388,-0.087045829145664555,-9.6841545398402804,0.040444541494957818,0.16597769135353979,-0.0044710412708110856,-0.42450149840666501,0.0083199385135969382,
0.210563,-9.9225638900936097,0.12790351036449948,-0.087407744208896951,-9.4443327903105576,0.072783647591762271,0.16042322585889401,-0.0077523278898430203,-0.40429412707532986,0.0087377727557495632,
0.21199200000000001,-9.9225638900936097,0.12790247882662509,-0.087769659272129347,-9.2908292256411897,0.063821082281226502,0.1452579435109187,-0.0056190531086068871,-0.40389067177910137,0.0084745459942499445,
0.21343899999999999,-9.9225638900936097,0.12790144728875069,-0.088131574335361743,-9.203483074120772,0.11317995618807652,0.17882973069034408,-0.0085268310594702364,-0.39329013556319847,0.0086430592454552306,
0.213951,-10.132440935184839,0.057368805829037597,-0.098553262703182307,-9.203483074120772,0.11317899448952649,0.17849231875406163,-0.0085268071951552765,-0.39329004111316196,0.0086430589762517638,
0.21487800000000001,-10.132440935184839,0.057367774291163215,-0.098915177766414702,-9.4009839562802373,0.029798251867001191,0.20116160162522279,-0.0038792087626718583,-0.41589809424108048,0.0079909813978161753,
0.21629000000000001,-10.132440935184839,0.057366742753288832,-0.099277092829647098,-9.5232228000614096,-0.030250354673556294,0.21553592663283164,-0.00021955187775313766,-0.41868831328822148,0.0076576299805457748,
0.21777099999999999,-10.132440935184839,0.05736571121541445,-0.099639007892879494,-9.5668884222339639,0.017521215786865871,0.24832220471231473,-0.0028885066977472548,-0.42459501536752231,0.0085942239249305,
0.21788099999999999,-10.051889384540655,0.028987136206638498,-0.10471969296435352,-9.5668884222339639,0.01752025408831584,0.24798479277603228,-0.0028884828334322949,-0.4245949209174858,0.0085942236557270332,
0.21917700000000001,-10.051889384540655,0.028986104668764112,-0.10508160802758591,-9.4082035932434742,0.010259245930673348,0.23242239172061788,-0.0016649185889573866,-0.40678999376198699,0.0090567152620568657,
0.220586,-10.051889384540655,0.028986104668764112,-0.10545390036183475,-9.2155807044592635,0.03964438409530352,0.192356819271573,-0.0049269935684626487,-0.39625170277662408,0.0084599334669918716,
0.22181799999999999,-10.020250528583484,0.02284791881601788,-0.038932462967287043,-9.2155807044592635,0.03964438409530352,0.19200973264787713,-0.004927012447796717,-0.39625160561840067,0.0084599334669918716,
0.222025,-10.020250528583484,0.02284791881601788,-0.039304755301535876,-9.0875864127733426,0.099185165438736386,0.1865853650106043,-0.0097054535710137044,-0.38963926528947457,0.0083503710456587221,
0.223464,-10.020250528583484,0.02284791881601788,-0.03967704763578471,-9.1200677700493138,0.076322631603419705,0.18675298413647526,-0.0052088186115441066,-0.39517684174451867,0.0077699008368085258,
0.22489799999999999,-10.020250528583484,0.02284791881601788,-0.040049339970033543,-9.3279245455308981,0.073093830972865953,0.1947417722573774,-0.0042161776614077096,-0.41454637647792231,0.0088330475326142861,
0.22577,-9.7470747515398362,0.015884619368860743,-0.056135876695929496,-9.3279245455308981,0.073093830972865953,0.19439468563368154,-0.0042161965407417779,-0.4145462793196989,0.0088330475326142861,
0.22634299999999999,-9.7470747515398362,0.015884619368860743,-0.056508169030178329,-9.4762553765356774,0.05267615082328983,0.19643835546730526,-0.003692518635364345,-0.41775817197656978,0.0079871954556861059,
0.22777600000000001,-9.7470747515398362,0.015884619368860743,-0.056880461364427162,-9.5119549805790751,0.069529807318918169,0.19528375896505598,-0.0038316633407482633,-0.42214074017497066,0.0087074340955040786,
0.229215,-9.7470747515398362,0.015884619368860743,-0.057252753698675996,-9.3542432644521192,0.1418970015261071,0.16020496221836106,-0.010739615031272126,-0.40398745477979942,0.0082527593116442557,
0.22971,-9.6401045733777462,0.087623819835295769,-0.065343733787531291,-9.3542432644521192,0.1418970015261071,0.15985787559466519,-0.010739633910606195,-0.403987357621576,0.0082527593116442557,
0.23060700000000001,-9.6401045733674309,0.087622788297421386,-0.06573184991277338,-9.1994542879431673,0.13630269346885571,0.15283704903421341,-0.0077501751343268619,-0.39529183135770019,0.0084859765549617147,
0.23206399999999999,-9.6401045733571156,0.087621756759547004,-0.066119966038015468,-9.0866545042108644,0.1447506744781159,0.12128369699733668,-0.0096085565923012921,-0.39110053110002185,0.0078329733732177987,
0.23350199999999999,-9.6401045733468003,0.087620725221672621,-0.066508082163257556,-9.1359524066562354,0.15995620428760038,0.14121473273730889,-0.0094464453516938992,-0.39660832103164784,0.0094763975770647043,
0.23360500000000001,-9.9495883115446269,0.10308117064530077,-0.040361479988406959,-9.1359524066466182,0.15995524258905033,0.14085289365785536,-0.0094464228160622277,-0.39660821974342109,0.0094763973078607136,
0.23491200000000001,-9.9495883115343116,0.10308013910742639,-0.040749596113649054,-9.3304311602827177,0.086114257509238429,0.12275364367118125,-0.004836446193494175,-0.41176974442024311,0.0089938018772891693,
0.23633299999999999,-9.9495883115239963,0.10307910756955201,-0.04113771223889115,-9.4725900847451374,0.088200286578232923,0.12292222275311078,-0.0058204221209358685,-0.41723708840666668,0.0081631940754586432,
0.23754700000000001,-9.7763644325998449,0.14025057777618005,-0.092264624345231805,-9.4725900847355202,0.088199324879682892,0.12256038367365726,-0.0058203995853041961,-0.41723698711843993,0.0081631938062546525,
0.23777799999999999,-9.7763644325895296,0.14024954623830566,-0.092652740470473893,-9.4705928646543089,0.13963256629865631,0.11418954265206256,-0.0090769398116856172,-0.41640443852723447,0.0093838801552733834,
0.23921700000000001,-9.7763644325792143,0.14024851470043126,-0.093040856595715982,-9.3116554341336801,0.16421984878130377,0.089942421861053917,-0.008653317701896427,-0.40300067697707614,0.0084283228253557059,
0.24065700000000001,-9.7763644325792143,0.14024748316255686,-0.093442681859308818,-9.1471299663398487,0.19989096012577043,0.053471013223108155,-0.013167460066551825,-0.39291400747296817,0.0085531074923612602,
0.24150199999999999,-9.7083125261594017,0.14452307519910343,-0.12034783525084645,-9.1471299663398487,0.19988999842722038,0.053096393169924566,-0.013167438226124912,-0.39291390260744952,0.0085531072231577934,
0.24207100000000001,-9.7083125261594017,0.14452204366122903,-0.12074966051443929,-9.1078876691895836,0.18277115690518989,0.054271630206522946,-0.0094898459665493772,-0.39258655334311754,0.0081257370836072991,
0.243501,-9.7083125261594017,0.14452101212335464,-0.12115148577803213,-9.2331593928440565,0.14604059109426601,0.035922710048773371,-0.0091690521176281178,-0.40466537722885881,0.0085627530307131883,
0.24493200000000001,-9.7083125261594017,0.14451998058548024,-0.12155331104162496,-9.4069598264523773,0.12947877290213869,0.04320702749430641,-0.0081459116010024358,-0.41382090834979929,0.0091236132679657876,
0.24543300000000001,-9.8068239767760321,0.14544252508652808,-0.15650180644506731,-9.4069598264523773,0.12947781120358864,0.042832407441122822,-0.0081458897605755226,-0.41382080348428063,0.0091236129987623208,
0.24640799999999999,-9.8068239767760321,0.14544149354865368,-0.15690363170866015,-9.4900551066126635,0.084955654040491935,0.041889526355774025,-0.0037383867457199118,-0.41912692005552554,0.0083061444404573508,
0.247835,-9.8068239767760321,0.14544046201077929,-0.15730545697225298,-9.4742181862234922,0.12708647356189021,0.025748002801309317,-0.0090172383179468671,-0.41426318808502904,0.0082343292567669275,
0.24923200000000001,-9.8068239767760321,0.14543943047290489,-0.15770728223584582,-9.3637610563314926,0.17895703456635748,0.029867694757499289,-0.01301436689338103,-0.40608051382703192,0.0092420799744018945,
0.24937500000000001,-9.9532265071591226,0.09305736216821564,-0.19923457567994254,-9.3637610563314926,0.17895607286780743,0.029493074704315701,-0.013014345052954117,-0.40608040896151326,0.0092420797051984277,
0.25067299999999998,-9.9532265071591226,0.093056330630341258,-0.19965505114830448,-9.2294148344467644,0.10558833591312587,0.024046961901244106,-0.0029417767183466739,-0.40004634609371836,0.0092752105610619737,
0.25210100000000002,-9.9532265071591226,0.093055299092466875,-0.20007552661666642,-9.1615989416372763,0.091156780761271469,0.013774020031199844,-0.0098602083849431352,-0.39506942654464677,0.0088647131633715574,
0.25332399999999999,-10.010671834956209,0.083623989259877365,-0.22195401903179401,-9.1615989416372763,0.091155819062721438,0.013382012468231487,-0.0098601874902876328,-0.39506931681192942,0.0088647128941680906,
0.25352400000000003,-10.010671834956209,0.083622957722002983,-0.22237449450015595,-9.2965438471215478,0.019230174798819583,0.046206743019038571,0.00051358968494640694,-0.40464434378490216,0.0076835915184299821,
0.25495400000000001,-10.010671834956209,0.0836219261841286,-0.22279496996851789,-9.5236731151688225,0.031885078659216082,0.020864308087854458,-0.0051380551990078743,-0.42490320457326475,0.0078940095655843645,
0.25642100000000001,-10.010671834956209,0.083620894646254218,-0.22321544543687982,-9.7254819463097135,0.025485767334098637,0.032898094266397011,-0.001686883797196581,-0.42968418856934254,0.0089051319157385997,
0.257276,-9.8204963915151371,0.08158948110319568,-0.24102591013675972,-9.7254819463097135,0.025484805635548606,0.032506086703428652,-0.0016868629025410793,-0.42968407883662518,0.0089051316465351329,
0.25787900000000002,-9.8204963915151371,0.081588449565321297,-0.24144638560512166,-9.9119378691950217,0.10879504750429211,-0.015926809933757481,-0.010467070750515294,-0.43975901453324273,0.0086844927798354846,
0.25927899999999998,-9.8204963915151371,0.081587418027446915,-0.2418668610734836,-10.041089639012251,0.15227019890052956,-0.031128985507691075,-0.012274101215510735,-0.4444854190257545,0.0081179029571420685,
0.26069599999999998,-9.8204963915048218,0.08158535495169815,-0.2423685082571819,-10.016749181897241,0.097731515531237823,-0.019499094186046791,-0.0071711787264696321,-0.44106292205666248,0.009031204345456581,
0.261243,-10.243186649976158,0.034147998228866952,-0.26358639104979464,-10.016749181887624,0.09772959213413776,-0.019966777807917998,-0.0071711197307100542,-0.4410627911399021,0.0090312038070491235,
0.262125,-10.243186649965843,0.03414593515311818,-0.26408803823349292,-9.8471927437206563,0.075667369780747423,-0.034715388964086463,-0.0067239154866698125,-0.42453247555301898,0.0078236158666655127,
0.26359199999999999,-10.243186649955527,0.034143872077369408,-0.26458968541719119,-9.8018674523818508,0.06603257397199909,0.0094005270429809509,-0.004140747439561155,-0.4262340186222926,0.0082447829857409515,
0.26504,-10.243186649945212,0.034141809001620636,-0.26509133260088946,-9.9290643798551752,0.046634787695293251,0.034467159819172748,-0.0027400747008493685,-0.43694959029353797,0.0079595666709009836,
0.26522000000000001,-10.408646784885491,0.027705189216187889,-0.27574845366141459,-9.929064379845558,0.046632864298193188,0.033999476197301537,-0.0027400157050897901,-0.43694945937677759,0.0079595661324935261,
0.26643,-10.408646784875176,0.027703126140439117,-0.27625010084511287,-10.07383472345421,0.074825084344879209,0.055469741983897848,-0.0073838823609642936,-0.4471460938797347,0.0080321632320389941,
0.26786300000000002,-10.40864678486486,0.027701063064690345,-0.27675174802881114,-10.114602616188682,0.082862385453198059,0.089206317179733097,-0.0083421835704640488,-0.44481908608046528,0.0084907297183299361,
0.26909699999999998,-10.375701507049433,0.026328642634739222,-0.28416810016926353,-10.114602616179065,0.082860462056097997,0.088738633557861893,-0.0083421245747044709,-0.4448189551637049,0.0084907291799224786,
0.26929599999999998,-10.375701507039118,0.02632657955899045,-0.2846697473529618,-9.9723317090473333,0.088799727330072298,0.10911191480075601,-0.0067037568551337433,-0.43708401981827344,0.008461281051644504,
0.27073000000000003,-10.375701507028802,0.026324516483241491,-0.28523295671700416,-9.7907789720746798,0.039017118234260691,0.14148650755259523,-0.0029709438296437254,-0.42355995528211665,0.0083164113348928211,
0.27215800000000001,-10.375701507018487,0.026322453407492532,-0.28579616608104652,-9.6387959085762915,-9.5777260389479091e-05,0.13183275476036102,-0.0002894927890998056,-0.41557936151239316,0.0077778583395370733,
0.273036,-10.534346439702977,0.042925746654258835,-0.19353300580472449,-9.6387959085666743,-9.7700657489716429e-05,0.13130767696902326,-0.00028943691522284202,-0.41557921452956986,0.0077778578011296158,
0.273586,-10.534346439692662,0.042923683578509876,-0.19409621516876682,-9.6079532087980493,0.056662159785832437,0.14603167438703488,-0.0063007390983498245,-0.41486809036980266,0.0090557989823972524,
0.27503100000000003,-10.534346439682347,0.042921620502760917,-0.19465942453280916,-9.8165897379309808,0.043781482109147805,0.13902106841880868,-0.0046018117527113697,-0.43538029307936849,0.0084928784653514455,
0.27646300000000001,-10.534346439672031,0.042919557427011958,-0.19522263389685149,-10.012024661137165,0.096751157790907705,0.13236624920228035,-0.0079932478817751965,-0.44724821700852957,0.0088258713224370865,
0.27696300000000001,-10.596609240264714,0.082169109034695473,-0.14497545424097202,-10.012024661127548,0.096749234393807462,0.13184117141094259,-0.0079931920078982321,-0.44724807002570627,0.008825870784029629,
0.27787099999999998,-10.596609240254399,0.082167045958946514,-0.14553866360501436,-10.087809999624515,0.13521862767136952,0.15618960775144253,-0.013235497274660439,-0.44612239864824382,0.0085275907402783957,
0.27930899999999997,-10.596609240244083,0.082164982883197554,-0.14610187296905669,-9.9113732201399358,0.042098469662837604,0.17391011885546831,-0.0041128808094382536,-0.43282523154768182,0.0082295832865690137,
0.280781,-10.596609240233768,0.082161888269574393,-0.14676304748503058,-9.6711269717220869,-0.007293960079484435,0.19900586632345699,-0.00021054224078196574,-0.41706426379762163,0.0085478976848915918,
0.28088999999999997,-10.458202727664098,0.090659481519116791,-0.14125592860344424,-9.6711269717124697,-0.0072968451751345299,0.1983894560208217,-0.00021044911741368623,-0.41706409124854504,0.0085478968772806675,
0.28220899999999999,-10.458202727653783,0.09065638690549363,-0.14191710311941813,-9.5483388577646693,-0.012988364166660136,0.21321990605872301,-0.0018643648964395405,-0.41255305152706834,0.0079968724780260028,
0.28360800000000003,-10.458202727643467,0.090653292291870469,-0.14257827763539202,-9.4656938190622046,-0.022923816753595963,0.20825557475820269,-0.001047659470478096,-0.40374589329307475,0.009294745919415804,
0.28480899999999998,-10.233763709759886,0.071859160613715722,-0.3288381271129267,-9.4656938190525874,-0.022926701849246056,0.2076391644555674,-0.0010475663471098164,-0.40374572074399817,0.0092947451118048797,
0.28504099999999999,-10.233763709749571,0.071856066000092561,-0.32949930162890056,-9.7319173923660447,0.0086520659781968989,0.22339048946594722,-0.0039512993278589389,-0.43363247893782847,0.008327340705141335,
0.28653699999999999,-10.233763709739256,0.0718529713864694,-0.33016047614487443,-9.9314222172888353,0.053556643793582395,0.1952729621820104,-0.0058340804207334604,-0.44096111751866446,0.0081794078786879137,
0.28796699999999997,-10.23376370972894,0.071849876772846238,-0.33082165066084829,-10.135929989828874,0.062098970312036844,0.20318764801135844,-0.0049282732447021114,-0.45397277659504393,0.0093888785226932791,
0.28871200000000002,-10.145633889695103,0.067788219084788312,-0.14586639748974511,-10.135929989819257,0.062096085216386751,0.20257123770872315,-0.0049281801213338318,-0.45397260404596734,0.0093888777150823548,
0.28936499999999998,-10.145633889684788,0.067785124471165151,-0.146527572005719,-10.11231233386801,0.048874493386399681,0.1831121098849105,-0.0057908637158025208,-0.44969478618633224,0.0080318192545558876,
0.29077399999999998,-10.145633889674473,0.067780998319667607,-0.14726860818392873,-9.8724013450259722,0.013953616438634082,0.15600418677468153,-0.0007875390435766608,-0.42169241193658369,0.0092148884723853575,
0.292209,-10.145633889664158,0.067776872168170063,-0.14800964436213845,-9.7230394099988207,0.051726263959578307,0.15247537998478916,-0.0052903661414288594,-0.42295665733004006,0.0082173731536785387,
0.29267599999999999,-10.480932006168889,0.038706086772663129,-0.16087083055389018,-9.7230394099892035,0.051722417165378183,0.15178451498040957,-0.0052902348505223388,-0.42295646393923103,0.0082173720768641458,
0.293653,-10.480932006158573,0.038701960621165585,-0.1616118667320999,-9.619620119419217,0.13059450460258751,0.14247077780051343,-0.01047863615883597,-0.41291025656313401,0.0075499960114611617,
0.29511100000000001,-10.480932006148258,0.038697834469668041,-0.16235290291030963,-9.8060236841638098,0.13644027029642689,0.10741915888026736,-0.008537842552702039,-0.43337277509381505,0.009455132323596396,
0.29653200000000002,-10.480932006137943,0.038693708318170497,-0.16309393908851935,-9.9983469164342171,0.19285947188371527,0.093896030983894083,-0.014071936545638018,-0.44269785204319001,0.0080019034124500857,
0.29657299999999998,-10.250200223050967,0.045586759721670658,-0.16893060507586133,-9.9983469164245999,0.19285562508951515,0.09320516597951449,-0.014071805254731498,-0.44269765865238098,0.0080019023356356928,
0.29796,-10.250200223040652,0.045582633570173114,-0.16967164125407105,-10.122991126816549,0.20344885919481956,0.097854001870995702,-0.013007879807346107,-0.45100770152106839,0.0088382995596049709,
0.29941000000000001,-10.250200223030337,0.045578507418675571,-0.17041267743228078,-9.9590772994736891,0.14525676118086342,0.10250210889968198,-0.0070242240465143808,-0.43474472373171369,0.0080331467488761708,
0.30056500000000003,-10.158885648507558,0.047088886891976239,-0.151733689582708,-9.9590772994544547,0.14525195268811308,0.10173172104219937,-0.0070240548637452386,-0.43474450808004778,0.0080331454028577873,
0.30083599999999999,-10.158885648486928,0.047083729202604126,-0.15256002362775167,-9.6949345760322281,0.1485501634772346,0.097029266298842842,-0.0081962302648314386,-0.41823319648576546,0.0070573555832196214,
0.302257,-10.158885648466297,0.047078571513232012,-0.15338635767279535,-9.443127484347281,0.13068632993996854,0.11142682052639614,-0.0077538587117716136,-0.40459315073942448,0.0083108197387608898,
0.30369600000000002,-10.158885648445667,0.047073413823859898,-0.15421269171783902,-9.2909040595271701,0.14809101971755373,0.093712648861491207,-0.0095083822937158929,-0.39665378518954048,0.0087397652000177333,
0.30451299999999998,-10.451096504835347,0.14134397911984509,-0.18984825572579445,-9.2909040595079357,0.14808621122480339,0.092942261004008597,-0.0095082131109467515,-0.39665356953787456,0.0087397638539993498,
0.30513200000000001,-10.451096504814716,0.14133882143047297,-0.19067458977083812,-9.3873681751097369,0.16638143027682914,0.076977008684384868,-0.010074060089846985,-0.40732718292907544,0.0081898677291571478,
0.30657000000000001,-10.451096504794085,0.14133366374110085,-0.1915009238158818,-9.6238119841420513,0.14668097743010333,0.065357794063216734,-0.008485508786141082,-0.42865895566021517,0.0073731672425769914,
0.30800899999999998,-10.451096504773455,0.14132850605172873,-0.19232725786092547,-9.7284980933016989,0.15835430776813741,0.073474772178666645,-0.010320573172111045,-0.43116698968030626,0.0087457036203836738,
0.30846000000000001,-10.086349904975474,0.11845570201862683,-0.21023815712776961,-9.7284980932824645,0.15834949927538708,0.072704384321184035,-0.010320403989341904,-0.43116677402864034,0.0087457022743652902,
0.30939699999999998,-10.086349904954844,0.11845054432925471,-0.21106449117281328,-9.719119821671665,0.14263915897108798,0.043302041673262494,-0.010962846979951937,-0.43032667627593779,0.00911182076598787,
0.310832,-10.086349904934213,0.1184443551020084,-0.21197507091605902,-9.4951130062678271,0.10019630289598455,0.025828022281723102,-0.0058098756594630535,-0.40840259369033194,0.0074091686706117205,
0.31228400000000001,-10.086349904913583,0.11843816587476209,-0.21288565065930476,-9.3257506341765861,0.11755147599903687,0.017579124463796086,-0.0082905566465102578,-0.40242096550993312,0.0081204547112436031,
0.31240299999999999,-9.9434557729516424,0.11351957846001488,-0.19792676452337793,-9.3257506341573517,0.11754570580773668,0.016730194685731496,-0.0082903495185219361,-0.40242072787242,0.0081204530960217527,
0.31371199999999999,-9.9434557729310118,0.11351338923276857,-0.19883734426662367,-9.247188857080209,0.11836888305482104,0.014982553953745904,-0.0062705139651247415,-0.39857539587261259,0.0082710770193249825,
0.31512000000000001,-9.9434557729103812,0.11350720000552227,-0.1997479240098694,-9.3983436035724903,0.073720662409322152,-0.0019699761479257429,-0.0045688475706639987,-0.41055120921505361,0.0086448180600104535,
0.31634699999999999,-9.9675229274295063,0.13687199339640052,-0.21869978684760566,-9.3983436035532559,0.073714892218021966,-0.0028189059259903326,-0.0045686404426756779,-0.4105509715775405,0.0086448164447886031,
0.31656800000000002,-9.9675229274088757,0.1368658041691542,-0.2196103665908514,-9.6308953623172098,0.06673361080587599,0.020057407697444372,-0.004736058746270152,-0.43028589785018545,0.0083016314819902605,
0.31805099999999997,-9.9675229273882451,0.13685961494190788,-0.22052094633409713,-9.7439814278798664,0.091560196491346682,0.0075020120925871278,-0.0045224562840754396,-0.42909296818814735,0.0077568425271476501,
0.31944800000000001,-9.9675229273676145,0.13685342571466155,-0.22143152607734287,-9.7306631845537979,0.082456003448399234,-0.0029100101510463666,-0.005700553625033673,-0.43235920551901402,0.0081667727433140137,
0.32026399999999999,-10.187724045706657,0.055605532148894382,-0.23034273892513377,-9.7306631845249463,0.082448309859998986,-0.0038349525825063218,-0.0057002661968431536,-0.4323589466032367,0.0081667705896847059,
0.320855,-10.187724045675711,0.055597279845899295,-0.23133485142197188,-9.4815477646450983,0.037293092555296593,-0.017546739289429705,-0.0064925992768214112,-0.40709731029517243,0.0080084299675757652,
0.322295,-10.187724045644766,0.055589027542904207,-0.23232696391881,-9.3443838261516152,0.033378601792422066,-0.031460315373433682,-0.0058756456877786896,-0.40376490518837727,0.009002130601147084,
0.32372800000000002,-10.18772404561382,0.055580775239909119,-0.23331907641564811,-9.2509239331026514,0.08247792901525286,-0.041344215287238056,-0.0067256222548061247,-0.39758625168847961,0.0078036018157691782,
0.32419900000000001,-10.274344940281626,0.037981574468549453,-0.25005406753357279,-9.2509239330737998,0.082470235426852612,-0.042269157718698012,-0.0067253348266156053,-0.39758599277270229,0.0078035996621398703,
0.32516299999999998,-10.27434494025068,0.037973322165554366,-0.2510461800304109,-9.3484744885368105,0.10180033205191066,-0.04094125716696722,-0.0069595198079510888,-0.407755183590016,0.0085813703196795082,
0.32657999999999998,-10.274344940219734,0.037965069862559278,-0.25203829252724902,-9.5143619455168444,0.092553082595907762,-0.053533573706391571,-0.0085974406575819624,-0.42297070996464076,0.0089977720462644552,
0.328011,-10.274344940188788,0.03795681755956419,-0.25303040502408713,-9.6106067046566039,0.1795792626990062,-0.032569934905805786,-0.01239012623319866,-0.42232434827538418,0.0092739353504991597,
0.32815699999999998,-9.9718016959945039,0.021013440356909434,-0.26953493397954387,-9.6106067046277524,0.17957156911060596,-0.033494877337265742,-0.01238983880500814,-0.42232408935960686,0.0092739331968698518,
0.32945799999999997,-9.971801695963558,0.021005188053914346,-0.27052704647638198,-9.5372521625017601,0.17554050484345371,-0.038735073013830286,-0.012188298283880197,-0.41843513515098307,0.0081744778836052648,
0.330872,-9.9718016959326121,0.020995904213044689,-0.27154853717188293,-9.329871513144548,0.12019605973955247,-0.034198717301290316,-0.0075859718888888501,-0.40018027051000477,0.0078306414425204935,
0.33213799999999999,-9.7144852631626755,0.16033127468955091,-0.27947663395326544,-9.3298715131156964,0.12018740445260201,-0.035151048907455483,-0.0075856437330907873,-0.40018000392731268,0.0078306390196877188,
0.33233000000000001,-9.7144852631317296,0.16032199084868126,-0.28049812464876639,-9.2185942319480478,0.11039641766899369,-0.028961604849517084,-0.0064470469181394201,-0.40065168526970124,0.0079101594812924989,
0.33374500000000001,-9.7144852631007836,0.16031270700781161,-0.28151961534426734,-9.2294764878305049,0.075734036517852765,0.0041550646755560312,-0.0048541710895897905,-0.39911551172957055,0.0078193516739619891,
0.33518399999999998,-9.7144852630698377,0.16030342316694196,-0.28254110603976829,-9.4740280547703684,0.073323058139416239,0.0084769405380335887,-0.0035764972980043435,-0.42105553036904414,0.0071410109425711927,
0.33604200000000001,-9.9863947519612815,0.19011856083900058,-0.32753486976896623,-9.4740280547415168,0.073314402852465779,0.0075246089318684196,-0.0035761691422062807,-0.42105526378635205,0.0071410085197384171,
0.33659600000000001,-9.9863947519303355,0.19010927699813093,-0.32855636046446718,-9.6160016177524259,0.10050686854548109,0.016872533482968147,-0.0081794485389773252,-0.42584402474291211,0.0082519740247426372,
0.33803699999999998,-9.9863947518993896,0.19009999315726128,-0.32957785115996813,-9.6405105896309049,0.09273496444066566,0.026237154806710492,-0.0074618923371423968,-0.42742894633276757,0.0092661084182895752,
0.33947699999999997,-9.9863947518684437,0.19009070931639163,-0.33059934185546908,-9.4197375364336384,0.057726755864544517,0.033673271846284603,-0.0043613992339467233,-0.40577333836969276,0.0091313992289801648,
0.33999800000000002,-9.982864617654517,0.06318622788173775,-0.2587891592104653,-9.4197375364047868,0.057718100577594057,0.032720940240119435,-0.0043610710781486605,-0.40577307178700067,0.0091313968061473901,
0.34091399999999999,-9.9828646176132558,0.063175912502993897,-0.25988752010836635,-9.25277135760766,0.029194797101997228,0.022264590815391089,-0.0022238707392406953,-0.39725679759711791,0.0083701054559016108,
0.342358,-9.9828646175719946,0.063165597124250045,-0.26098588100626741,-9.2097364515255933,-0.029235888736056401,0.0245162636730724,-0.0014070803873912469,-0.39963473060678328,0.0077359587545132048,
0.34376400000000001,-9.9828646175307334,0.063155281745506192,-0.26208424190416846,-9.3413421319345353,0.032216648769862244,0.032524086760125998,-0.005341381681373698,-0.41004044497798603,0.0085363262230516122,
0.343918,-10.193805822959606,0.037755642698643344,-0.22221232985414385,-9.3413421318960665,0.032207031784361927,0.031500089378011652,-0.0053410152063373415,-0.4100401583338294,0.0085363235310148469,
0.34522900000000001,-10.193805822918344,0.037745327319899484,-0.2233106907520449,-9.4888175583354446,0.054669719329273878,0.055023522469593092,-0.00463439225671693,-0.42113514200173258,0.0082445701962659112,
0.34664499999999998,-10.193805822877083,0.037735011941155625,-0.22440905164994596,-9.5052106012160955,0.016637048989580162,0.051967795199740492,-0.0021211491741057876,-0.41405178180625374,0.0083401385174094091,
0.34791,-9.9032653820464205,0.032233736729818413,-0.23090925733209464,-9.5052106011776267,0.016627432004079845,0.050943797817626146,-0.0021207826990694311,-0.41405149516209711,0.0083401358253726438,
0.34808,-9.9032653820051593,0.032223421351074553,-0.23200761822999572,-9.5033633053920923,0.050830107743071208,0.069263087423271169,-0.0048874699736183554,-0.41721944439062653,0.0078258280093515542,
0.34949799999999998,-9.9032653819638981,0.032213105972330694,-0.23310597912789677,-9.3742449043648293,-0.0051925422847855646,0.071919549600863178,-0.0016593625880700707,-0.40341409953864599,0.0087921445514560631,
0.35093800000000003,-9.9032653819123215,0.032200727517837875,-0.23422230941556985,-9.312388085042608,-0.026438778682402447,0.065139776093754945,0.0014719119324548193,-0.40545338389569829,0.0087283195357023852,
0.35180099999999997,-10.035844333301348,0.0066895839297292925,-0.20065681583544226,-9.3123880849945238,-0.026450319065002999,0.064099025922898858,0.0014723619310581136,-0.40545309256159506,0.0087283163052581623,
0.35237200000000002,-10.035844333249772,0.0066772054752364763,-0.20177314612311534,-9.3211131204770314,0.047366833472635678,0.071678686276835102,-0.0069098437155792596,-0.40444467465267825,0.0097301167864250471,
0.35380899999999998,-10.035844333198195,0.0066648270207436602,-0.20288947641078842,-9.5383944447368965,0.071675557907431214,0.059818581006008509,-0.0058506192958314588,-0.42401710210270832,0.0087703290825432677,
0.35522399999999998,-10.035844333146619,0.006652448566250844,-0.20400580669846149,-9.624628819728299,0.095362797949783154,0.042981446291324832,-0.0076966330278117846,-0.42207848009803511,0.0078532969582849575,
0.355744,-9.9731789684322507,0.076239055668988018,-0.18440009725108844,-9.6246288196802148,0.095351257567182601,0.041940696120468746,-0.0076961830292084903,-0.42207818876393188,0.0078532937278407346,
0.35666500000000001,-9.9731789683806742,0.076226677214495206,-0.18551642753876152,-9.675633465689808,0.1104438238396583,0.059073404422185546,-0.0068810780565587495,-0.42921738450009095,0.0088181637650297517,
0.35809800000000003,-9.9731789683290977,0.076214298760002394,-0.1866327578264346,-9.5586226784105524,0.087666668294752809,0.051316763479397245,-0.0056221880941281013,-0.41434638938490331,0.0088362273723384798,
0.35956100000000002,-9.9731789682775212,0.076201920305509582,-0.18774908811410768,-9.3991567215135454,0.098691956912563772,0.045279645628541781,-0.0081988363389846868,-0.40552557633454328,0.0083368004489212631,
0.35964600000000002,-9.9486449679509974,0.091229192754264138,-0.22118822411169733,-9.3991567214654612,0.098680416529963219,0.044238895457685695,-0.0081983863403813934,-0.40552528500044005,0.0083367972184770402,
0.36096299999999998,-9.9486449678994209,0.09121578276189693,-0.22232126531293564,-9.3334556468904566,0.10361162684984315,0.034982588082006105,-0.0080189257961522636,-0.40605722841012393,0.0080355955764416266,
0.362396,-9.9486449678478444,0.091202372769529721,-0.22345430651417394,-9.3110565505905925,0.1452727524631873,0.020530259159822171,-0.0097790862090114377,-0.40213881581290062,0.0087054909666811828,
0.36358600000000002,-9.9826562779340318,0.055059513315515798,-0.22595199380138659,-9.3110565505425082,0.14526025038203672,0.019473929472455399,-0.009778594840429318,-0.40213852011770124,0.0087054874670334913,
0.36382500000000001,-9.9826562778824552,0.055046103323148597,-0.22708503500262489,-9.4034111520533994,0.17933130676871684,-0.00032716043826067423,-0.012449380744807875,-0.41227476805610486,0.0085953725292422269,
0.36525999999999997,-9.9826562778308787,0.055032693330781396,-0.2282180762038632,-9.5463210236296394,0.12597741017335068,-0.02066361964068315,-0.0080127315748837989,-0.41729513062493345,0.0079030288639787873,
0.36667300000000003,-9.9826562777793022,0.055019283338414195,-0.2293511174051015,-9.6982983642870213,0.09714078161527219,-0.052478505786854597,-0.0081789882102039461,-0.42930175282228672,0.0082838115090133318,
0.36751499999999998,-9.995998810084938,0.14672831865566083,-0.22911335670867519,-9.6982983642389371,0.097128279534121606,-0.053534835474221373,-0.0081784968416218264,-0.42930145712708734,0.0082838080093656404,
0.36811300000000002,-9.9959988100333614,0.14671490866329362,-0.2302463979099135,-9.7772237362782199,0.10634622858566285,-0.069889144023156546,-0.0068310407664148327,-0.42899504866599264,0.0082043371254529943,
0.36957000000000001,-9.9959988099817849,0.14670149867092641,-0.2313794391111518,-9.8542244734715183,0.099322568597357525,-0.10006630942017349,-0.0066214423832269623,-0.43303367504239937,0.0083121280066365405,
0.37100899999999998,-9.9959988099302084,0.14668602560281044,-0.23257561043030325,-9.8632528057491715,0.15150429233258891,-0.11333535514636237,-0.011023888638858965,-0.43316071379569315,0.0084291161621455474,
0.37144100000000002,-10.046268523533952,0.16655210138133919,-0.29640516274350281,-9.8632528057010873,0.15148986685433827,-0.11445054078499174,-0.011023316036857723,-0.43316040162524155,0.0084291121240909223,
0.37240400000000001,-10.046268523482375,0.16653662831322322,-0.29760133406265427,-9.8232793564884613,0.13038171936760495,-0.11920476163342543,-0.009541112390188242,-0.42862989145208746,0.0086789578360883489,
0.37387900000000002,-10.046268523430799,0.16652115524510724,-0.29879750538180572,-9.7581840259704293,0.097367189025771822,-0.10464327847127156,-0.005512139226706186,-0.42240918013599926,0.0085813549091838769,
0.37529200000000001,-10.046268523379222,0.16650568217699127,-0.29999367670095717,-9.8270343814051984,0.089248464147512779,-0.08111422116414288,-0.0078190326373641095,-0.43144173761504351,0.0080128990698606871,
0.37542999999999999,-10.311349432680554,0.15391698839171072,-0.378396078065737,-9.8270343813571142,0.089234038669262133,-0.082229406802772256,-0.0078184600353628682,-0.43144142544459191,0.008012895031806062,
0.37675199999999998,-10.311349432628978,0.15390151532359475,-0.37959224938488845,-9.9415581089108418,0.028964914946604546,-0.062991393863218226,-0.0020828274069113967,-0.43943498664116309,0.0080931587761191044,
0.37817499999999998,-10.311349432577401,0.15388604225547878,-0.3807884207040399,-9.952990033951659,0.051989585869223587,-0.065851402733371742,-0.004516515249304168,-0.43587018843791719,0.0088304090255754957,
0.37932700000000003,-10.414353280759153,0.12310416571686851,-0.42139224030815237,-9.9529900339035748,0.051975160390972941,-0.066966588372001118,-0.0045159426473029259,-0.43586987626746559,0.0088304049875208707,
0.37960500000000003,-10.414353280707576,0.12308869264875254,-0.42258841162730382,-9.9304211234719784,0.1299449171718049,-0.071919549689499845,-0.0082728696356904174,-0.43792190593014768,0.0084966256552992635,
0.381054,-10.414353280635369,0.1230701249670134,-0.42386576497717038,-9.8459811388732721,0.13904470174341826,-0.087059104815972968,-0.0082062720877406226,-0.42881595071196454,0.0088278776744306949,
0.38248599999999999,-10.414353280563162,0.12305155728527427,-0.42514311832703694,-9.7880556699571617,0.12809467392971691,-0.093824273103017927,-0.0091025547774466493,-0.42458649058136416,0.0086953975513112836,
0.38326100000000002,-10.475326738677149,0.11639357585848378,-0.3797142197392781,-9.7880556698898431,0.12807736335581615,-0.095015144417535655,-0.0091018596400509345,-0.42458615722375537,0.0086953927056452104,
0.38387100000000002,-10.475326738604942,0.11637500817674465,-0.38099157308914466,-9.8289830916893148,0.099535955502085494,-0.080825092425349035,-0.0063607114170965992,-0.42825423603758417,0.0085424265729447287,
0.385299,-10.475326738532734,0.11635644049500551,-0.38226892643901123,-9.9872685319518109,0.07381877351896321,-0.067859108923798053,-0.0045478198717132786,-0.44436622186522512,0.0084933034686130032,
0.38673800000000003,-10.475326738460527,0.11633787281326638,-0.38354627978887779,-10.121299340957727,0.090416928552014594,-0.065545701495416331,-0.0068207251184410778,-0.44617618830164346,0.0085751556906433924,
0.387179,-10.378567843863937,0.13182790576080144,-0.39295379995199453,-10.121299340890408,0.090399617978113855,-0.066736572809934058,-0.006820029981045363,-0.44617585494403467,0.0085751508449773192,
0.38817800000000002,-10.37856784379173,0.13180933807906231,-0.39423115330186109,-10.220159104481228,0.14806062293347827,-0.041638091252679824,-0.010677193903342031,-0.45504977015546205,0.0083704778838553633,
0.38959700000000003,-10.378567843719523,0.13179077039732318,-0.39550850665172765,-10.090059083529489,0.16648149621243058,-0.021629880038043319,-0.011677993049876399,-0.44110168884664758,0.0082663665564105971,
0.39104299999999997,-10.378567843647316,0.13176910810196071,-0.39687911102543971,-9.8722522886487987,0.17899899117869941,0.0041782548763253449,-0.012369326004776523,-0.42632406021593533,0.0083131953473616019,
0.39112999999999998,-10.340460466638753,0.14456901457811777,-0.4001605479870402,-9.8722522885814801,0.17897879550914841,0.0029004460128837636,-0.012368508944017606,-0.42632370252233309,0.0083131896940851265,
0.39247100000000001,-10.340460466566546,0.14454735228275531,-0.40153115236075226,-9.698524154573839,0.098859538353728793,0.033853395232454543,-0.006928903656909062,-0.41945635857672714,0.0081444390892376744,
0.39391100000000001,-10.340460466494338,0.14452568998739285,-0.40290175673446432,-9.5851348809428174,0.044372951582656382,0.056019420941462492,-0.0029628208344386108,-0.40781146701743487,0.0085787594870930396,
0.39504899999999998,-10.604725778340866,0.1473154803603452,-0.38339861575241285,-9.5851348808754988,0.04435275591310537,0.054741612078020911,-0.0029620037736796945,-0.40781110932383263,0.0085787538338165641,
0.395339,-10.604725778268659,0.14729381806498273,-0.38476922012612491,-9.8012338665054433,0.049017294705547353,0.061464453453286799,-0.0059413481811860982,-0.43499020111672648,0.0081587239642192562,
0.39679700000000001,-10.604725778196451,0.14727215576962027,-0.38613982449983697,-10.039492449796237,0.092827011180179733,0.057457694949147403,-0.0076166280841271283,-0.44449082014056152,0.0081602460868647475,
0.398206,-10.604725778124244,0.14725049347425781,-0.38751042887354903,-10.218254355172943,0.096317635435299281,0.039092766391544354,-0.0077458201658346321,-0.45592285722404158,0.0094717409101889079,
0.39895000000000003,-10.375927358605351,0.071044772857840083,-0.27981079413333954,-10.218254355105625,0.096297439765748269,0.037814957528102773,-0.0077450031050757158,-0.45592249953043934,0.0094717352569124325,
0.39964100000000002,-10.375927358533144,0.071023110562477607,-0.28118139850705159,-10.222107584608288,0.11234556192799075,0.054718250025543695,-0.010020523887625563,-0.44986877148209209,0.0084633853717996765,
0.40107399999999999,-10.375927358440306,0.070998353653492163,-0.28262957452891835,-10.036010235193366,0.067549080874897582,0.064008198723321474,-0.0060327327856036393,-0.43773220439943017,0.0076341845635483508,
0.40252700000000002,-10.375927358347468,0.07097359674450672,-0.2840777505507851,-9.8309447107968335,-0.0070213044403622527,0.084547021627490615,-0.0011787964450795854,-0.42382199237039664,0.0085212593846860345,
0.40288600000000002,-10.285659365090774,0.11640142296570412,-0.22419556371389945,-9.8309447107102805,-0.0070443852055631856,0.083196893033085834,-0.0011778566658399243,-0.42382161443184929,0.0085212529237981109,
0.40395500000000001,-10.285659364997937,0.11637666605671868,-0.22564373973576624,-9.7149354399477339,-0.020424633369177367,0.12813833908545713,0.00060095791276454174,-0.41976721513877396,0.0083204753972006794,
0.40540300000000001,-10.285659364905099,0.11635190914773323,-0.22709191575763302,-9.7518277439819911,0.03342017070514091,0.12916453642441086,-0.0058908291705163859,-0.42500536922385124,0.0079107059218723672,
0.406831,-10.505011894850327,0.12621310293101334,-0.22584665292423223,-9.7518277438954382,0.033397089939939978,0.12781440783000608,-0.0058898893912767251,-0.42500499128530389,0.0079106994609844435,
0.40683599999999998,-10.505011894757489,0.12618834602202789,-0.22729482894609901,-9.8822874035264388,0.052392495226965069,0.12689258516997221,-0.0041490482820623073,-0.43895144812372971,0.0075616421226566543,
0.408271,-10.505011894664651,0.12616358911304243,-0.22874300496796579,-9.905405557206052,0.071869665861589868,0.11476008196777299,-0.0067374729958003072,-0.4349814135823275,0.0085850931444439327,
0.40966799999999998,-10.505011894571814,0.12613883220405697,-0.23019118098983257,-9.7918011988675353,0.044611266928228921,0.10411650502943293,-0.0051651401805927104,-0.42673421774098935,0.0088649235008881559,
0.410802,-10.470078926366771,0.071914094058394037,-0.1896799918817349,-9.7918011987713651,0.044584339368827691,0.10266097427394348,-0.0051640372649421184,-0.42673381029731983,0.0088649159631858394,
0.41111900000000001,-10.470078926263618,0.071885210997910856,-0.19124122445463565,-9.6854362437982342,0.01950606864679472,0.1047579505554854,-0.0016794263579915274,-0.42021133850649861,0.0081939963523592965,
0.41254000000000002,-10.470078926160465,0.071856327937427675,-0.1928024570275364,-9.6676792712156718,0.016476784743535949,0.10933020264968542,-0.001738434474546925,-0.42105016654747224,0.0086187638468469066,
0.41394900000000001,-10.470078926057312,0.071827444876944493,-0.19436368960043715,-9.7611122527852086,-0.006480225520095171,0.11553302690603853,-0.0012069643168436265,-0.42874683796618901,0.0083125995478781304,
0.41472999999999999,-10.456449728343618,-0.014816402974666659,-0.17057307079918443,-9.7611122526890384,-0.0065071530794964041,0.11407749615054909,-0.0012058614011930342,-0.42874643052251948,0.0083125920101758139,
0.41538700000000001,-10.456449728240464,-0.014845286035149835,-0.17213430337208518,-9.904303075889711,0.051122616928627546,0.09532830700330315,-0.0043403129477684902,-0.43931389511662278,0.0079166934867807553,
0.416821,-10.456449728137311,-0.014874169095633012,-0.17369553594498593,-10.018686460222865,0.075678361024718005,0.095751026711626067,-0.0073127728891884767,-0.44176000341405414,0.0085475355789512639,
0.41828399999999999,-10.456449728034158,-0.014903052156116188,-0.17525676851788669,-10.024828073441785,0.049593317523642738,0.078257479252595449,-0.0053413542442742167,-0.44322674388749622,0.007907955538536196,
0.41866399999999998,-10.305622798405221,-0.033577591127844031,-0.19923931997236277,-10.024828073345615,0.049566389964241508,0.076801948497106004,-0.0053402513286236247,-0.4432263364438267,0.0079079480008338796,
0.419678,-10.305622798302068,-0.033606474188327205,-0.20080055254526352,-9.8437855279299953,0.059712076902953701,0.065152859105518823,-0.0052625760350381561,-0.4254090414472308,0.0075286882156918545,
0.42111599999999999,-10.305622798178282,-0.033639483400307923,-0.20246741459650258,-9.7225104794439261,0.095104894734956383,0.054838584038284302,-0.0066036255778555795,-0.42134620182398469,0.0081275735342751787,
0.42254399999999998,-10.305622798054497,-0.033672492612288642,-0.20413427664774164,-9.6587823193057414,0.052966508721267153,0.045525631941183559,-0.0041903943785126943,-0.41552705835601567,0.008010380634977032,
0.42258000000000001,-10.393297771762118,0.073046582537969071,-0.20588095697243519,-9.6587823191903368,0.052935734367665792,0.043971623254169749,-0.0041891279498165457,-0.41552662334506674,0.0080103720204598005,
0.42402000000000001,-10.393297771638332,0.073013573325988346,-0.20754781902367425,-9.792923623956769,0.077521012337509757,0.030845561682685041,-0.0054481829822478432,-0.43264899787421024,0.007799479096160365,
0.42543599999999998,-10.393297771514547,0.072980564114007621,-0.20921468107491331,-9.9448828495175281,0.11218845590261933,0.0088080657046385735,-0.0086858837849940994,-0.43866479472803138,0.0083885742637018115,
0.426512,-10.427794465338415,0.096178234077028635,-0.20860506563121808,-9.9448828494021235,0.11215768154901798,0.0072540570176247614,-0.0086846173562979516,-0.43866435971708245,0.00838856564918458,
0.42685000000000001,-10.42779446521463,0.09614522486504791,-0.21027192768245714,-10.053467923935692,0.10065203876590807,-0.0018542246462232457,-0.0091335138224249886,-0.44460839523867751,0.0093491479924884355,
0.428282,-10.427794465090845,0.096112215653067185,-0.2119387897336962,-9.9740475249165783,0.09439664155764875,-0.019761368314486369,-0.0066674385135935283,-0.43905140988941344,0.0089327185618459978,
0.429732,-10.427794464946428,0.096074048751714533,-0.21367228913162134,-9.7268560004343811,0.075643574680101133,-0.038450587399926822,-0.0043435866074091794,-0.41860782304586347,0.0081141617047993074,
0.43043700000000001,-10.46021704063102,0.09741583026335604,-0.25989660191515118,-9.726856000299744,0.07560799183374961,-0.040066721813273379,-0.004342112470928903,-0.41860737064352621,0.0081141517442636923,
0.43114000000000002,-10.460217040486604,0.097377663362003389,-0.26163010131307635,-9.5783864884356209,0.093240866998585664,-0.040017990172510121,-0.0045265355485083541,-0.41477742437109183,0.0075568885041461271,
0.43257400000000001,-10.460217040342188,0.097339496460650737,-0.26336360071100151,-9.4770338007786084,0.076122174402739287,-0.034029354050772793,-0.0068767894705195412,-0.40944816523851324,0.0086020678058156864,
0.43401499999999998,-10.460217040197772,0.097301329559298086,-0.26509710010892668,-9.4634806133408933,0.086847626269717135,-0.061776514188178186,-0.0036609149670270747,-0.41071668706831854,0.0089338749925367954,
0.43436399999999997,-10.195194516154078,0.071407218287760088,-0.2874771290901964,-9.4634806132062561,0.086812043423365612,-0.063392648601524743,-0.0036594408305467984,-0.41071623466598128,0.0089338650320011804,
0.435446,-10.195194516009662,0.071369051386407437,-0.28921062848812157,-9.6274969897887228,0.14296475399322012,-0.062536467590218831,-0.0097286779751797683,-0.42507700056950126,0.0080442542107096796,
0.43686199999999997,-10.195194515865246,0.071330884485054785,-0.29094412788604673,-9.7746472861206097,0.1550570179884628,-0.072804297946024582,-0.0096661939370176996,-0.43533295295060986,0.0083199325900999779,
0.43830400000000003,-10.091011882326033,0.065784487277973272,-0.27578017649131581,-9.7746472859859725,0.15502143514211128,-0.074420432359371139,-0.0096647198005374232,-0.43533250054827261,0.0083199226295643629,
0.438309,-10.091011882181617,0.065746320376620621,-0.27751367588924097,-9.7182001606482196,0.085744972541404674,-0.089181090094473628,-0.0064613436531146201,-0.42589513942111135,0.0083532105286849949,
0.43974400000000002,-10.091011882037201,0.065708153475267969,-0.27924717528716614,-9.5072407818160514,0.086411923834010501,-0.075878233125823549,-0.0070055104152502547,-0.41104413870109213,0.0089266008875661801,
0.44118600000000002,-10.091011881882469,0.065665860422417593,-0.2810870262399417,-9.3065729846408018,0.05959132968262712,-0.077744517657545018,-0.0048980133735663997,-0.39908803797400128,0.007764552407717804,
0.44222400000000001,-10.242113017575894,0.15274531648493719,-0.35051693898504016,-9.3065729844965475,0.059551900042075299,-0.079459803191400974,-0.0048963757606578151,-0.39908755781636435,0.007764541370367797,
0.44261600000000001,-10.242113017421163,0.1527030234320868,-0.35235678993781572,-9.2604846461034089,0.065675949688734581,-0.082037063742581934,-0.0037545729356351955,-0.40111338122040002,0.0086991896415573155,
0.44403799999999999,-10.242113017266432,0.15266073037923641,-0.35419664089059127,-9.3453962718829935,0.10072096896034796,-0.10707672690219658,-0.0086113807820802617,-0.40636929521084741,0.0083346627761270633,
0.44546799999999998,-10.2421130171117,0.15261843732638602,-0.35603649184336683,-9.5277938928527863,0.11440773947673938,-0.12398585087285774,-0.0074255678813793403,-0.42294148424848299,0.0088047156169651381,
0.44617200000000001,-9.9142454302017917,0.10397684249750219,-0.39076586607739694,-9.5277938927085319,0.11436830983618756,-0.12570113640671368,-0.0074239302684707556,-0.42294100409084606,0.0088047045796151302,
0.44690400000000002,-9.9142454300470604,0.10393454944465182,-0.3926057170301725,-9.6226604885262876,0.15783843686129073,-0.10927937006040195,-0.010170927346749254,-0.42265399149637856,0.0093236627026764985,
0.44834400000000002,-9.914245429892329,0.10389225639180144,-0.39444556798294805,-9.6300930862865766,0.13195603035628703,-0.091114116848109383,-0.0099438623607385219,-0.42740137543129181,0.0078149439658022866,
0.44978499999999999,-9.9142454297375977,0.10384996333895107,-0.39628541893572361,-9.4118666487503369,0.10357125428018063,-0.083840236315038022,-0.0058202751737045358,-0.40626349007784157,0.0079371105189161434,
0.45011099999999998,-9.785747492735938,0.093461671831280652,-0.35228234490261268,-9.4118666486060825,0.10353182463962882,-0.085555521848893978,-0.0058186375607959511,-0.40626300992020464,0.0079370994815661355,
0.45119999999999999,-9.7857474925605761,0.093413189551184148,-0.35420688511487625,-9.22663369868744,0.14657633705231848,-0.058202484144498356,-0.00931002417460235,-0.39903056514831658,0.0080301413194354323,
0.45264500000000002,-9.7857474923852141,0.093364707271087644,-0.35613142532713982,-9.0579475111367103,0.13593530653548147,-0.062268478216571908,-0.0090505644913110792,-0.38766377429010146,0.0080532219101868037,
0.45403399999999999,-9.9578906353637411,0.15875201036487244,-0.37305107176482877,-9.0579475109732215,0.13589010670362964,-0.064062719201386356,-0.0090486778686430236,-0.38766327203001549,0.0080532092576149471,
0.45407500000000001,-9.9578906351883791,0.15870352808477592,-0.37497561197709234,-9.0168907593460847,0.11864662501000689,-0.059368287865414864,-0.0059908749209412254,-0.38873716390689744,0.0084857580740128093,
0.45548699999999998,-9.9578906350130172,0.1586550458046794,-0.37690015218935591,-9.161378183160739,0.1840394392498762,-0.045058794286027062,-0.013792224846618427,-0.40120490708351303,0.0079768312688814,
0.45691999999999999,-9.9578906348376552,0.15860656352458288,-0.37882469240161948,-9.3510898543644672,0.17894679102977823,-0.051799304022658171,-0.0083534423154050987,-0.41532177786512514,0.0085456051980683529,
0.457986,-9.6993667564480184,0.15034861086197099,-0.38522690389186881,-9.3510898542009784,0.1789015911979264,-0.053593545007472619,-0.0083515556927370432,-0.41532127560503918,0.0085455925454964964,
0.458366,-9.6993667562726564,0.15030012858187447,-0.38715144410413238,-9.3995007387405938,0.14896844645925253,-0.06025111670015082,-0.008712685054047974,-0.41520437394122639,0.0082475814230089026,
0.45979999999999999,-9.6993667560972945,0.15025164630177795,-0.38907598431639595,-9.2388896278631591,0.15893630987281418,-0.033521885892914507,-0.011228058800470606,-0.39954049497261268,0.0086068421777986091,
0.46121600000000001,-9.6993667559013019,0.15019800633230915,-0.39104477750347116,-9.0568021000607963,0.085392499743693229,-0.031872785719000499,-0.0030063864896686474,-0.3894720289693831,0.0079470021593363929,
0.46192499999999997,-9.598112225346874,0.1485358791760242,-0.332859715312113,-9.0568020998780732,0.085342491419090893,-0.033708283571611777,-0.0030042910240815142,-0.38947151515962403,0.0079469881607461528,
0.46265200000000001,-9.5981122251508815,0.1484822392065554,-0.33482850849918822,-8.962499069079918,0.10543538119279044,-0.029766363579609122,-0.0070888078360897911,-0.38485750774979688,0.0079452497274137314,
0.46410000000000001,-9.5981122249548889,0.14842859923708659,-0.33679730168626343,-9.0469992493105611,0.10620470336602866,-0.014150731360527188,-0.0073919853356297647,-0.39304091797573548,0.0092677691150790647,
0.46553099999999997,-9.5981122247588964,0.14837495926761779,-0.33876609487333864,-9.2368352447102264,0.087078385987414963,-0.017575462079376509,-0.0028190463438571393,-0.40733099864634509,0.0093461590829617587,
0.46582899999999999,-9.5889896314783485,0.15939190294121303,-0.3049371325115815,-9.2368352445275033,0.087028377662812628,-0.019410959931987784,-0.0028169508782700061,-0.40733048483658602,0.0093461450843715186,
0.46694400000000003,-9.5889896312823559,0.15933826297174422,-0.30690592569865671,-9.4420727803301858,0.12277814719979065,-0.023970334275289312,-0.010866663842693105,-0.42101580815806877,0.008753926284172691,
0.468389,-9.5889896310863634,0.15928462300227542,-0.30887471888573192,-9.4844776785500109,0.058400764931262047,-0.046955777919838834,-0.0035915277764956462,-0.41606483019654145,0.0083067487745870743,
0.46976699999999999,-9.4646279949475947,0.13172344494324909,-0.28885929877531824,-9.4844776783672877,0.058350756606659705,-0.048791275772450113,-0.0035894323109085129,-0.41606431638678237,0.0083067347759968341,
0.46982600000000002,-9.4646279947516021,0.13166980497378028,-0.29082809196239345,-9.4879636073067033,0.043251025418500462,-0.07907972955514353,-0.0024122360265869344,-0.41638954685371976,0.0092911387318389323,
0.47126200000000001,-9.4646279945349789,0.13161100731493972,-0.29284454219926587,-9.4490577620808196,0.10312541933852498,-0.099463247083326559,-0.010583800873078699,-0.40923071070204714,0.0086249987655166345,
0.47267900000000002,-9.4646279943183558,0.13155220965609915,-0.29486099243613828,-9.4615841627349102,0.049602339227583184,-0.14900143475505467,-0.0026653372115923949,-0.41146074554192175,0.0081467941095446396,
0.47370800000000002,-9.7884120745827055,0.12572971784990136,-0.31693849792176076,-9.4615841625329526,0.04954752241023086,-0.15088136308067793,-0.0026630330757104136,-0.41146021929411813,0.0081467787649360159,
0.47411300000000001,-9.7884120743660823,0.1256709201910608,-0.31895494815863318,-9.5993869318376372,0.059007590583973771,-0.19123592525685928,-0.0046871232102236966,-0.42349939399058262,0.0091261421033751317,
0.47554800000000003,-9.7884120741494591,0.12561212253222023,-0.32097139839550559,-9.7269309866208395,0.10652501736130146,-0.21942734922552215,-0.0088450865241156522,-0.42340325081159808,0.00896742682455701,
0.47698499999999999,-9.788412073932836,0.12555332487337967,-0.32298784863237801,-10.052309268693971,0.048646925368581152,-0.23447865502786042,-0.0024398392545658572,-0.45079721095229613,0.0084857903806702419,
0.47765099999999999,-9.8921754719077111,0.12631230595842649,-0.39095142111610393,-10.052309268492014,0.048592108551228828,-0.23635858335348367,-0.0024375351186838759,-0.45079668470449252,0.0084857750360616182,
0.478433,-9.8921754716910879,0.12625350829958593,-0.39296787135297634,-10.255511374261129,0.073023229594816524,-0.23992625390931144,-0.0076073173444671282,-0.45534394188263805,0.0074004612092890328,
0.47984399999999999,-9.8921754714744647,0.12619471064074536,-0.39498432158984875,-10.398957989115118,0.082884438517974779,-0.24373010780623913,-0.0066291495222027532,-0.46467398614424155,0.0084730171771053089,
0.48130499999999998,-9.892175471237211,0.12612972375465831,-0.39706431455978403,-10.25380272390726,0.070217744578287999,-0.25895921727530985,-0.0068351846310515914,-0.45018977843218005,0.0085441689198453158,
0.48156300000000002,-10.127488612742617,0.13393765787838063,-0.43060685818590461,-10.25380272368607,0.070157157569635309,-0.26089838623161571,-0.0068326304130476275,-0.45018923560059854,0.0085441519600148418,
0.48272100000000001,-10.127488612505363,0.13387267099229358,-0.43268685115583988,-10.067184388083971,0.082625683367444649,-0.26512618537223209,-0.0071328908928785595,-0.43086009648534418,0.0081287227222257459,
0.484157,-10.12748861226811,0.13380768410620653,-0.43476684412577515,-10.092697170958115,0.048562887162713585,-0.27877779042286521,-0.0064021928339427188,-0.44235113488610095,0.0075968473951001378,
0.48548799999999998,-10.592279130204165,0.13560366919076877,-0.50080425907364179,-10.092697170736924,0.048502300154060894,-0.28071695937917107,-0.0063996386159387549,-0.44235059205451943,0.0075968304352696647,
0.48559799999999997,-10.592279129966911,0.13553868230468172,-0.50288425204357712,-10.266306906126122,0.1321047608526173,-0.27929280983604671,-0.010274806974411375,-0.4502355549056945,0.0077950250960116705,
0.48702299999999998,-10.592279129729658,0.13547369541859466,-0.50496424501351245,-10.492269108665885,0.10875857686589763,-0.26482144941865593,-0.0075818225069406529,-0.46978938454263153,0.0084325235130847404,
0.48845899999999998,-10.592279129492404,0.13540870853250761,-0.50704423798344778,-10.539450566410116,0.12561294637876388,-0.25114542775374527,-0.010295653216044753,-0.46525312611028385,0.0076491309531024204,
0.48940899999999998,-10.625185552247371,0.089043227861622581,-0.56177151893022159,-10.539450566188926,0.12555235937011119,-0.25308459671005112,-0.010293098998040789,-0.46525258327870234,0.0076491139932719472,
0.48988199999999998,-10.625185552010118,0.088978240975535527,-0.56385151190015692,-10.37448789576796,0.1080101644784157,-0.20450665119770206,-0.010191061052698605,-0.45480109415662917,0.0070579203518173006,
0.49131399999999997,-10.625185551741918,0.08890706486220197,-0.56601619412958026,-10.079983660686546,0.034838748320349416,-0.19233743272614012,-0.0020592922018168834,-0.43352819536574011,0.0075147313212601645,
0.49274699999999999,-10.625185551473718,0.088835888748868413,-0.56818087635900361,-9.8692563772325883,0.042205929626623652,-0.18575353099662595,-0.0043510433867809803,-0.42486626782120224,0.0074283453566463828,
0.49334,-10.638126277426844,0.13713951284362619,-0.5946300535588257,-9.8692563769825465,0.042139572426670602,-0.18777165540389032,-0.0043482401590175298,-0.42486570288674952,0.0074283267815935363,
0.494172,-10.638126277158644,0.13706833673029264,-0.59679473578824904,-9.8586245032669382,0.048312929719109637,-0.16483914880681044,-0.004400551541616133,-0.42068483906371695,0.0084001436977641578,
0.49561100000000002,-10.638126276890445,0.1369971606169591,-0.59895941801767238,-10.177110192009183,0.075364968945243221,-0.17184900345756796,-0.0063225606051501224,-0.45483948225576909,0.0083752757399089481,
0.49706699999999998,-10.638126276622245,0.13692598450362556,-0.60112410024709573,-10.440304343654219,0.12242319277755243,-0.14367399333118733,-0.010373768748125348,-0.46405591808179875,0.0084781333930609749,
0.49727700000000002,-10.685410789001246,0.14754231234163911,-0.52783444113105893,-10.440304343404177,0.12235683557759937,-0.1456921177384517,-0.010370965520361899,-0.46405535314734603,0.0084781148180081284,
0.498477,-10.685410788733046,0.14747113622830557,-0.52999912336048227,-10.669062499049501,0.094169383626638889,-0.09390522943998543,-0.0074838987882802147,-0.48215171064097545,0.0091444826684940767,
0.49994899999999998,-10.685410788444216,0.14739067627410254,-0.53227469591140331,-10.511337414086166,0.012147014099254214,-0.052008301502865145,-0.002192006982240838,-0.46046030831062362,0.0074421201006894585,
0.50121099999999996,-10.900400917625445,0.057808917051971498,-0.52322388008946619,-10.511337413816889,0.012072001612350877,-0.05412980850425908,-0.0021888294211809471,-0.46045971443595379,0.0074420991028043603,
0.50140799999999996,-10.900400917336615,0.057728457097768471,-0.52549945264038722,-10.182460956385929,-0.067784752714251384,-0.0044856266014488902,0.0030775478730459601,-0.43730154610509897,0.0086279319157959097,
0.50278,-10.900400917047785,0.057647997143565444,-0.52777502519130826,-9.9367733638612776,-0.065484878831104876,0.0097917424498482602,0.001463267816482897,-0.42953418767914897,0.007795230277827591,
0.50419800000000004,-10.900400916758954,0.057567537189362417,-0.53005059774222929,-9.753660417514002,-0.02343529767986352,0.0062211973655939799,-0.0018247918347099358,-0.41336861719300577,0.0084195350001630264,
0.50513200000000003,-10.984709781985869,-0.042275168579848851,-0.52204037968241868,-9.7536604172447259,-0.023510310166766857,0.004099690364200043,-0.0018216142736500452,-0.41336802331833594,0.0084195140022779273,
0.505637,-10.984709781697038,-0.042355628534051878,-0.52431595223333971,-10.037216709878619,0.050115633520581362,-0.0069831012012512746,-0.0068292335815184606,-0.44937539162198059,0.0084452188406502274,
0.50706600000000002,-10.984709781408208,-0.042436088488254906,-0.52659152478426074,-10.227512558353594,0.12764633811872084,-0.025800945879308763,-0.012938545252978237,-0.45112870524818249,0.0085311504071044694,
0.50853199999999998,-10.984709781119378,-0.042516548442457933,-0.52886709733518178,-10.370770211389058,0.056319583092194536,-0.035207676680121786,-0.0034334163798362179,-0.46718192335956488,0.0091725394455386064,
0.50906499999999999,-10.652711875198385,-0.06396128266496881,-0.36697115985730711,-10.370770211119781,0.0562445706052912,-0.037329183681515721,-0.0034302388187763271,-0.46718132948489505,0.0091725184476535073,
0.50992999999999999,-10.652711874909555,-0.064041742619171838,-0.3692467324082282,-10.126360134022555,0.017020763158405339,-0.039411341847565937,-0.0029723102785869518,-0.43683916421888924,0.007702949518118913,
0.51136000000000004,-10.652711874579463,-0.064131486414244335,-0.37163154482004801,-9.9426002037304322,0.04133727870257739,-0.038542579849099416,-0.0065469225162664724,-0.43302343577020336,0.0078530777943205225,
0.51279699999999995,-10.652711874249372,-0.064221230209316832,-0.37401635723186782,-9.7182321161964076,0.0098182945686007272,-0.050484334519445576,-0.001067973801365224,-0.41423452257037641,0.0074946515621720786,
0.51301600000000003,-10.865903663030979,0.023399173759271266,-0.36621203857646334,-9.7182321158886644,0.0097346267947471081,-0.052707685397289025,-0.0010644218233123077,-0.41423390018537071,0.0074946281414536818,
0.51425600000000005,-10.865903662700887,0.023309429964198766,-0.36859685098828315,-9.7132465850690295,0.1198098363851641,-0.05642438707416466,-0.010668853380763553,-0.42035831914607613,0.0083353148999827497,
0.51564699999999997,-10.865903662370796,0.023219686169126265,-0.37098166340010297,-9.90880949914696,0.17408519998338434,-0.045829391111841325,-0.013183327035554131,-0.43885511446864167,0.0087647479734439503,
0.51697300000000002,-10.949493142690537,0.10614993978245256,-0.36458033596195455,-9.9088094988392168,0.17400153220953071,-0.048052741989684775,-0.013179775057501215,-0.43885449208363597,0.0087647245527255526,
0.51708799999999999,-10.949493142360446,0.10606019598738006,-0.36696514837377436,-10.099147778704257,0.13504135512844018,-0.056807225931167243,-0.0085769845881757591,-0.44783410621504899,0.008822183203198249,
0.51852900000000002,-10.949493142030354,0.10597045219230757,-0.36934996078559418,-10.104376414391336,0.11873430797344253,-0.06550636897497214,-0.009596841985884428,-0.45040369980920458,0.0085675338510858533,
0.51996200000000004,-10.949493141700263,0.10588070839723507,-0.37173477319741399,-9.8690638683927379,0.052036570683989744,-0.094929139929261247,-0.0037828667443589054,-0.42279463930298966,0.0091925416558394871,
0.52094799999999997,-10.513927193323665,0.12396165317921821,-0.37172469365427846,-9.8690638680465259,0.051943285924635631,-0.097265490386734696,-0.0037788987387064477,-0.42279398528488787,0.0091925155430843241,
0.52138499999999999,-10.513927192952311,0.12386159400540167,-0.37423071176633999,-9.7390323188552816,0.073157999948599145,-0.11218500417630084,-0.0040798756870157969,-0.42696127935050887,0.0084291162559255537,
0.52283599999999997,-10.513927192580956,0.12376153483158513,-0.37673672987840151,-9.5982574561900407,0.16202531606759574,-0.12663595167638186,-0.012307377192799642,-0.40932087419034591,0.0077689842953136551,
0.52427999999999997,-10.513927192209602,0.12366147565776858,-0.37924274799046304,-9.6472898715737916,0.11910287445225767,-0.1628674679537998,-0.0077957230950978298,-0.42515162752354702,0.0083525934400405007,
0.52488699999999999,-10.409576372912873,0.041388013151451658,-0.35905941500308342,-9.6472898712275796,0.11900958969290357,-0.16520381841127327,-0.0077917550894453722,-0.42515097350544523,0.0083525673272853377,
0.52572300000000005,-10.409576372541519,0.041287953977635114,-0.36156543311514494,-9.6663262270421892,0.11548065264234261,-0.17238465577308304,-0.0074053692686536334,-0.41649283456188224,0.0083472537154917828,
0.52713500000000002,-10.409576372170164,0.04118789480381857,-0.36407145122720647,-9.8361442323762365,0.12180736958593837,-0.17254782507235433,-0.0099318916711762378,-0.43949268402774688,0.0086518984688785921,
0.52859100000000003,-10.40957637179881,0.041087835630002026,-0.36657746933926799,-9.767494510840713,0.048492690848293454,-0.16970522768621904,-0.0027746649555889747,-0.42765535452406744,0.0088540230077358787,
0.52881500000000004,-10.368706064972304,0.087385055944130971,-0.35229883657680838,-9.767494510494501,0.048399406088939341,-0.1720415781436925,-0.002770696949936517,-0.42765470050596566,0.0088539968949807157,
0.53002499999999997,-10.368706064559689,0.087273649853695998,-0.35493317800044494,-9.5647039803828644,0.06488085961409959,-0.20661326250049286,-0.0072947238689056847,-0.412217684917,0.0079562612585916091,
0.53145299999999995,-10.368706064147073,0.087162243763261024,-0.35756751942408149,-9.3626696222014072,0.081688251449427193,-0.21655396342282532,-0.0089727212975834435,-0.40371866114755611,0.0089221527204233052,
0.53275300000000003,-10.332265113087134,0.097353881616805388,-0.42979335260883533,-9.3626696218167282,0.081584388006022565,-0.21900994917992406,-0.0089682954078662176,-0.40371797363885431,0.00892212364642791,
0.53286199999999995,-10.332265112674518,0.097242475526370414,-0.43242769403247189,-9.2055243318128976,0.11290674696722458,-0.26030014842559346,-0.0075081842421633998,-0.39257622000289844,0.0077406052776637429,
0.53429199999999999,-10.332265112261902,0.097131069435935441,-0.43506203545610844,-9.3360018937256903,0.12827342237248651,-0.27324192289286731,-0.008215709061240634,-0.40708787537949964,0.0076543454064779979,
0.535748,-10.332265111849287,0.097019663345500468,-0.437696376879745,-9.5876988894242618,0.064643139831893667,-0.29679383059935099,-0.0053385992935844999,-0.42433958480017719,0.0081566891843568197,
0.53669,-9.9206762879792212,0.127647479495547,-0.49051817107600226,-9.5876988890395829,0.064539276388489039,-0.29924981635644976,-0.005334173403867274,-0.42433889729147539,0.0081566601103614245,
0.53716299999999995,-9.9206762875666055,0.12753607340511203,-0.49315251249963882,-9.7495774238787867,0.050612444061643891,-0.28610849174263969,-0.0057668200177652335,-0.43441295566773386,0.0081232859335156667,
0.53861000000000003,-9.9206762871539897,0.12742466731467705,-0.49578685392327537,-9.7076678196957644,0.10094082472508781,-0.2579943467242003,-0.0086424506857335423,-0.4272292096210204,0.0090212430900705621,
0.54002499999999998,-9.9206762867104281,0.12730088276974927,-0.49852672167146284,-9.4715330934050996,0.070504827207670984,-0.24835594495244523,-0.0046449808486270019,-0.40678451201977756,0.0078036408080555007,
0.54064199999999996,-9.7590420492520966,0.025218038810017496,-0.5231921996246337,-9.4715330929915691,0.070389423381665803,-0.25091031247121331,-0.0046400537013791768,-0.40678379697029449,0.0078036085036169277,
0.54144199999999998,-9.759042048808535,0.025094254265089704,-0.52593206737282117,-9.23832792030246,0.082122731598467266,-0.24172641420011748,-0.0061082063447626582,-0.39762955119246662,0.0083246524591643646,
0.54290000000000005,-9.7590420483649734,0.024970469720161911,-0.52867193512100863,-9.0686051770783269,0.12629646059368344,-0.23923788668716878,-0.0082893181039932623,-0.38664706866795384,0.0093411190654737342,
0.54431799999999997,-9.7590420479214117,0.024846685175234119,-0.53141180286919609,-9.0508810101420138,0.072036641815703045,-0.28987177876399595,-0.0051189423836275538,-0.38989297105059478,0.0084342830671500935,
0.54458300000000004,-10.117937944719603,0.003146274155833427,-0.57416295579959975,-9.0508810097284833,0.071921237989697864,-0.29242614628276403,-0.0051140152363797287,-0.38989225600111171,0.0084342507627115197,
0.54575099999999999,-10.117937944276042,0.0030224896109056357,-0.57690282354778721,-9.2822799753600549,0.18026141273912222,-0.28459665680088758,-0.014564514795715515,-0.41052437987608181,0.0083063921947078064,
0.54718699999999998,-10.11793794383248,0.0028987050659778444,-0.57964269129597468,-9.4087695057569949,0.16456414464265401,-0.29940106136993011,-0.00858431031490141,-0.41797834018336805,0.0078647456547621605,
0.54852900000000004,-9.7504998493817485,0.073542167019993776,-0.80691256626241037,-9.4087695053434643,0.16444874081664881,-0.3019554288886982,-0.0085793831676535849,-0.41797762513388498,0.0078647133503235867,
0.548628,-9.7504998489381869,0.073418382475065991,-0.80965243401059783,-9.2872415828514363,0.17413675708849974,-0.32480555355522239,-0.012075262875125501,-0.4059902198970039,0.0099239342483196675,
0.55005899999999996,-9.7504998484430487,0.073285314089268722,-0.8124566697221477,-9.1301922691057822,0.17958939692014297,-0.30878490506066464,-0.0099760971784098075,-0.39358807693199277,0.0078455990159508153,
0.55147599999999997,-9.7504998479479106,0.073152245703471452,-0.81526090543369756,-8.9726557741595858,0.1402198868322283,-0.3522500821762955,-0.0094878163573142368,-0.38385265593113665,0.0069642546702454334,
0.55245999999999995,-9.6065957841959957,-0.27924494688680868,-0.64849494238918215,-8.9726557736979711,0.14009582771927284,-0.35486445968458624,-0.0094825125175724799,-0.38385192408124635,0.0069642199429730389,
0.55291400000000002,-9.6065957837008575,-0.27937801527260592,-0.65129917810073201,-9.0114464973289916,0.15201990184696146,-0.33541175365706044,-0.0063540122169564953,-0.3953325616297938,0.0081888690052063767,
0.55434499999999998,-9.6065957832057194,-0.27951108365840316,-0.65410341381228188,-9.1004482297022058,0.18914136519457211,-0.3434501780236825,-0.013796571078876472,-0.39555525130848507,0.0095547025428256369,
0.55577299999999996,-9.6065957827105812,-0.2796441520442004,-0.65690764952383174,-9.2252845806843435,0.12551501274964563,-0.34434169564340533,-0.0053430209769403623,-0.41092809825123949,0.0085214191759717273,
0.55641600000000002,-9.5646004674892779,0.12545848278581895,-0.60467776398562423,-9.2252845802227288,0.12539095363669017,-0.34695607315169608,-0.0053377171371986054,-0.41092736640134919,0.0085213844486993328,
0.55718800000000002,-9.5646004669941398,0.12532541440002168,-0.60748199969717409,-9.2548817751787098,0.11542294320106862,-0.34159534791530705,-0.0068755599159836958,-0.40075815622527222,0.0080767564435549714,
0.55862800000000001,-9.5646004664990016,0.12519234601422441,-0.61028623540872395,-9.3594159654294327,0.090014057018331678,-0.33146893432193653,-0.0074683739259650446,-0.41817992724714409,0.0080732516845276308,
0.56006699999999998,-9.5646004659729176,0.12504896224968309,-0.61311574379819656,-9.1610268970630866,0.018899853670332839,-0.36176259427605428,-0.0040563244170999093,-0.39048340246208696,0.0077446174685797944,
0.56036799999999998,-9.7550322838963393,0.13182228094456103,-0.32635621503453677,-9.1610268965726203,0.018766177571876878,-0.36440053339882111,-0.0040505996848946048,-0.39048266401544518,0.0077445800492711575,
0.56156399999999995,-9.7550322833702552,0.13167889718001971,-0.32918572342400937,-9.0615592192408947,0.026139429704401813,-0.36368475903726299,-0.0034800099808263685,-0.38914992807876198,0.0093425195704120011,
0.56297699999999995,-9.7550322828441711,0.13153551341547839,-0.33201523181348197,-9.1151005802751577,0.091683022326562738,-0.38475184060042822,-0.0072817305341431569,-0.39247768694587043,0.0076661683693749942,
0.56437000000000004,-9.829847145860894,0.13322396536233713,-0.46123277333896617,-9.1151005797846913,0.091549346228106773,-0.38738977972319505,-0.0072760058019378524,-0.39247694849922865,0.0076661309500663573,
0.56438299999999997,-9.82984714533481,0.13308058159779582,-0.46406228172843877,-9.3620840891288726,0.046008333065860073,-0.41428468142674424,-0.0045219595436749842,-0.41837111942168931,0.0082565679007299848,
0.56579900000000005,-9.8298471448087259,0.1329371978332545,-0.46689179011791138,-9.5101959448599089,0.043891790975745922,-0.4422878015003337,-0.0038030772252693238,-0.41903023362919395,0.0083141818707351232,
0.56723999999999997,-9.8298471442826418,0.13279381406871318,-0.46972129850738398,-9.6340624600587308,0.070088605177410876,-0.45891789046462944,-0.007323689590053457,-0.42829796257486985,0.0092541916566784236,
0.56825000000000003,-9.6570946053326807,0.11101060322498937,-0.55649987042630522,-9.6340624595682645,0.069954929078954911,-0.46155582958739627,-0.0073179648578481525,-0.42829722412822807,0.0092541542373697858,
0.56867100000000004,-9.6570946048065966,0.11086721946044807,-0.55932937881577782,-9.5399866108176532,0.10177910960998052,-0.46941942271799114,-0.006887397809638411,-0.41741240520514905,0.0082354002824588136,
0.57012200000000002,-9.6570946042495667,0.11071661493078606,-0.56215672097571412,-9.318398549894706,0.013732448583221035,-0.49536928505754552,-0.0024652081951021454,-0.39758284750080175,0.0083371342299669304,
0.571546,-9.6570946036925367,0.11056601040112406,-0.56498406313565042,-9.3478521899844083,0.017150640798728641,-0.52248382175212416,-0.0026700165671616079,-0.40491208256254552,0.008129483812151608,
0.57218000000000002,-9.901501951014918,0.09865046757015708,-0.71096407061028899,-9.3478521894650903,0.017010232810422458,-0.52511974130793582,-0.0026639962032572869,-0.40491134467996454,0.0081294445084171309,
0.57295799999999997,-9.9015019504578881,0.098499863040495073,-0.71379141277022529,-9.5799101994666742,0.097111123105488861,-0.52563666483031946,-0.0091736894507883499,-0.42323975680187853,0.0082001666531466497,
0.57440800000000003,-9.9015019499008581,0.098349258510833065,-0.71661875493016158,-9.7929559941418791,0.094694441898658152,-0.55389694638038434,-0.010416944705148309,-0.43334434830008328,0.0090133398177705739,
0.57582100000000003,-9.9015019493438281,0.098198653981171058,-0.71944609709009788,-9.9943455212710433,0.096168935168866751,-0.55566463672261934,-0.0071239708303598081,-0.44202197112746405,0.0091720658826524495,
0.57610700000000004,-9.9975350577179167,0.095974864667918672,-0.79382494607583698,-9.9943455207517253,0.096028527180560569,-0.558300556278431,-0.0071179504664554876,-0.44202123324488307,0.0091720265789179724,
0.57725499999999996,-9.9975350571608868,0.095824260138256664,-0.79665228823577328,-10.082843793031097,0.1283919793545642,-0.4890669541056808,-0.0088819033227711449,-0.44695006831891115,0.0084280876166977926,
0.578712,-9.9975350566038568,0.095673655608594657,-0.79947963039570957,-10.021454038017582,0.085272114013689088,-0.47247352798306341,-0.0075091344598765507,-0.44053397187268223,0.0088008335597218167,
0.58004800000000001,-10.285625857298674,0.097306044197473268,-0.84678318043878353,-10.021454037498264,0.085131706025382906,-0.47510944753887513,-0.0075031140959722301,-0.44053323399010125,0.0088007942559873396,
0.58012600000000003,-10.285625856741644,0.097155439667811261,-0.84961052259871983,-9.8315352365422495,-0.0073971085864867198,-0.43000193887942961,0.0012385615485612685,-0.42370855676923103,0.0076205989564181601,
0.58154899999999998,-10.285625856163984,0.096997614373028548,-0.8524370395283567,-9.6877603713786833,0.042153294934340974,-0.43196918623988378,-0.0054546414026101237,-0.42080277255372034,0.0080977049436022838,
0.58300300000000005,-10.285625855586323,0.096839789078245836,-0.85526355645799357,-9.6438878397947381,0.08970228025316182,-0.4072080430198684,-0.0078249494277008776,-0.41511421126511011,0.0083649501735575116,
0.58398099999999997,-10.32731808964253,0.018708703638137966,-0.87667112940232472,-9.6438878392561875,0.089555140375005421,-0.4098431932168401,-0.0078186335001010146,-0.41511347359704753,0.0083649089853977156,
0.58441900000000002,-10.327318089064869,0.018550878343355257,-0.87949764633196159,-9.7643319895885803,0.07214593238593825,-0.4707297615635519,-0.0047829368151624538,-0.42856095957638873,0.0084891057426380971,
0.58586300000000002,-10.327318088487209,0.018393053048572548,-0.88232416326159846,-9.9880119089502006,0.10080451257544515,-0.47009843408809415,-0.0094276691718441358,-0.43954301197041007,0.0084992363791513374,
0.58728800000000003,-10.327318087909548,0.018235227753789839,-0.88515068019123533,-10.183863013226615,0.065727882763155193,-0.494911397657046,-0.0081750682111630339,-0.4531561392482048,0.008347420212237085,
0.58795799999999998,-10.343724278487525,0.0016871597331227298,-0.77235345578177439,-10.183863012688064,0.065580742884998794,-0.4975465478540177,-0.0081687522835631708,-0.45315540158014223,0.008347379024077289,
0.58870999999999996,-10.343724277909864,0.0015293344383400201,-0.77517997271141126,-10.337615851560761,0.015371409878717233,-0.49649951257906133,-0.0012890181439037971,-0.45626139745999333,0.0079686788777548773,
0.59018499999999996,-10.343724277280625,0.0013580991511899215,-0.77809602712854575,-10.442181500619217,0.069124346514552334,-0.48108277107576308,-0.0080308135806059239,-0.47065792584614824,0.0083438359567018089,
0.59160299999999999,-10.343724276651386,0.0011868638640398228,-0.78101208154568025,-10.220257058356465,0.023109867786159657,-0.42912343062542152,-0.0048540436589135979,-0.43998461679953171,0.0091563201315964342,
0.59186099999999997,-10.553514074583388,0.1030345044087478,-0.8102188086662081,-10.220257057769828,0.022950225826852497,-0.43184205625653688,-0.0048471834455657116,-0.43998385576249732,0.0091562754437889485,
0.59304400000000002,-10.553514073954149,0.1028632691215977,-0.8131348630833426,-10.048499615361447,-0.041987769186380981,-0.37931527132849618,0.001092106758644908,-0.4360485679295435,0.0069986717631631105,
0.59445499999999996,-10.55351407332491,0.1026920338344476,-0.81605091750047709,-9.8892503390703386,-0.04310367593183894,-0.31636234972204741,-0.0015980382003937903,-0.42232317768686894,0.0067954808615037637,
0.59582400000000002,-10.610086919897208,0.012352612212228276,-0.82904509649861369,-9.8892503384837021,-0.043263317891146104,-0.31908097535316277,-0.0015911779870459038,-0.42232241664983455,0.006795436173696278,
0.59588300000000005,-10.610086919267969,0.012181376925078176,-0.83196115091574818,-9.928579882358207,-0.14679119074529406,-0.26188646505631069,0.0073666000759892471,-0.43581447396630835,0.0080578165735611523,
0.59734799999999999,-10.61008691863873,0.012010141637928077,-0.83487720533288268,-10.078896552563421,-0.12892995370376811,-0.26367204199487293,0.0034772078929882697,-0.44195853889176873,0.0087564756474021628,
0.59873900000000002,-10.610086918009491,0.011838906350777978,-0.83779325975001717,-10.306593953010452,0.017751836074119592,-0.27072857634221026,-0.0061275962982214943,-0.46209030013218183,0.0082857955180232635,
0.599773,-10.632229767871808,-0.0071903280931268736,-0.73718737233452292,-10.306593952423816,0.017592194114812432,-0.27344720197332562,-0.006120736084873608,-0.46208953909514744,0.0082857508302157778,
0.60017100000000001,-10.632229767180677,-0.0073780679862671455,-0.74022793337309722,-10.261654326670685,0.021133806140291377,-0.29469822259225675,-0.0044698955413673379,-0.45325628447334143,0.0085289727568684144,
0.60162700000000002,-10.632229766489546,-0.0075658078794074175,-0.74326849441167153,-10.015983637428597,0.06616450283388052,-0.30686770583984219,-0.0064310796391836055,-0.43433859803588076,0.0082295806292314536,
0.60303499999999999,-10.632229765798415,-0.0077535477725476894,-0.74630905545024584,-9.7906313547691681,0.068638856031152051,-0.30476417247927479,-0.0085998589692745861,-0.41967833491142625,0.0067249776951730632,
0.60367000000000004,-10.833989430385268,-0.050773178540821189,-0.66186101593360502,-9.7906313541248302,0.068463826895044391,-0.30759887512538031,-0.0085923295912798368,-0.41967754137900026,0.0067249287001069609,
0.60446100000000003,-10.833989429694137,-0.050960918433961458,-0.66490157697217933,-9.6494808587445586,-0.010395428994500272,-0.30895006282816939,0.0016678184062809027,-0.41459572210588275,0.0089177582368376914,
0.60589499999999996,-10.833989429003006,-0.051148658327101727,-0.66794213801075364,-9.8099075346716891,0.068115977669668953,-0.29531015561437857,-0.0067694422272426922,-0.42703674551591236,0.0084917286985414179,
0.60733899999999996,-10.833989428311876,-0.051336398220241997,-0.67098269904932795,-10.098471800708291,0.13539542468464277,-0.29586954988367614,-0.012801580163058874,-0.45282420043639948,0.0063326683611022918,
0.60759200000000002,-10.801585934305949,0.012919269355570133,-0.62138630793495431,-10.098471800063953,0.1352203955485351,-0.29870425252978167,-0.012794050785064124,-0.45282340690397349,0.0063326193660361895,
0.60877499999999996,-10.801585933614819,0.012731529462429862,-0.62442686897352861,-10.17332310085923,0.22613489808652726,-0.28531663082132558,-0.013783361912263384,-0.45137910098341866,0.0087205555927462788,
