time,ax,ay,az,fx,fy,fz,tx,ty,tz,
0.001436,-9.7555174717599016,2.0794419166054876,-0.17241878294212526,-9.1979346215219415,0.064685659741036794,0.13495194964883495,-0.0047672365704327507,-0.40186757998187589,0.0087702518986421396,
0.0028969999999999998,-9.7555250498600579,4.1425176654006641,-0.17239480040862204,-9.2042701376810108,1.0078639292918614,0.11730817304815393,-0.046241401720085652,-0.40223514603498656,0.0087835477352239677,
0.0043239999999999997,-9.7555326279602141,6.2055934141958407,-0.17237081787511882,-9.2079596527128302,1.9325755136154332,0.12125325730708877,-0.086334397383128203,-0.40224988876169943,0.0088652233565218105,
0.0052040000000000003,-9.7531263479450399,0.032549140041291835,-0.15109625854082287,-9.2079667177446751,3.8559726137006001,0.12127561612518828,-0.17076920966756626,-0.40225020516687071,0.0094036306754750471,
0.0057489999999999998,-9.7531339260451961,2.0956248888364688,-0.15107227600731965,-9.2130033429711116,4.2388228152308773,0.11588543525743912,-0.1857779972338528,-0.40268529161046096,0.009353131110752531,
0.0071799999999999998,-9.7531415041453524,4.1587006376316458,-0.15104829347381643,-9.2192511426001786,4.7852451702711267,0.11696234670338251,-0.2076590891776674,-0.40299305229754168,0.0089905426729704266,
0.0085979999999999997,-9.7531490822455087,6.2217763864268232,-0.15102431094031321,-9.2273273765896757,5.3815720463426304,0.11528921186105111,-0.23132057600681163,-0.40338287126414712,0.0089702416188094554,
0.0091409999999999998,-9.7543710950873042,3.7570086378070435,-0.1509437134509439,-9.2273344416215206,7.3049691464277977,0.11531157067915061,-0.31575538829124972,-0.40338318766931841,0.0095086489377626919,
0.010023000000000001,-9.7543710950873042,3.7570086378070435,-0.15095082167528259,-9.2310484711280552,5.9938756068669363,0.11944896283211957,-0.25493500426515131,-0.40355225564183073,0.0087633684545747742,
0.011448,-9.7543710950873042,3.7570086378070435,-0.15095792989962128,-9.2417677820813164,5.0021267617906746,0.1321826464314482,-0.20976716608193072,-0.40383350615827607,0.0085621166740344774,
0.012886,-9.7543710950873042,3.7570086378070435,-0.15096503812395998,-9.2604593984439028,4.1915167761496344,0.13911486025417322,-0.17167905575508219,-0.40485654539531662,0.0081145157647134706,
0.013103999999999999,-9.754792367894888,2.140538865274964,-0.1517779125061807,-9.2604593984439028,4.1915167761496344,0.13910823328563474,-0.17167905611554768,-0.40485654354026246,0.0081145157647134706,
0.014319,-9.754792367894888,2.140538865274964,-0.15178502073051939,-9.2726481589273479,3.5479975969809665,0.14602546695292204,-0.14240691196102739,-0.40551236894368203,0.0078377659067307998,
0.015737999999999999,-9.754792367894888,2.140538865274964,-0.15179212895485808,-9.2706931419766736,3.0273017999098375,0.15376445363203167,-0.11953708046425021,-0.40515680431255841,0.0080631274049416495,
0.017070999999999999,-9.7718707327666881,1.3347293641348461,-0.12192278502999745,-9.2706931419766736,3.0273017999098375,0.15375782666349319,-0.11953708082471572,-0.40515680245750424,0.0080631274049416495,
0.017180000000000001,-9.7718707327666881,1.3347293641348461,-0.12192989325433615,-9.2647404038632448,2.5739280780226315,0.14154753273869658,-0.09858833455773372,-0.40470655192466842,0.0081043124881554421,
0.018627000000000001,-9.7718707327666881,1.3347293641348461,-0.12193700147867484,-9.2638493383380922,2.2342541004240495,0.14731017400237686,-0.084139177483569888,-0.40459482812648362,0.0084601019617816364,
0.020055,-9.7718707327666881,1.3347293641348461,-0.12194176780257727,-9.2753108616295279,1.9437543384965124,0.14880957848257498,-0.073003751913494147,-0.40525093932862366,0.0089819434779626079,
0.020967,-9.773943107027268,0.83906332690268992,-0.10353446395765488,-9.2753108616295279,1.9437543384965124,0.14880513485825464,-0.073003752155199428,-0.40525093808474211,0.0089819434779626079,
0.021492000000000001,-9.773943107027268,0.83906332690268992,-0.10353923028155732,-9.2913677783763688,1.6523727337514269,0.15103422716003784,-0.059543591306616767,-0.4058602973824551,0.0082548948587335188,
0.022911999999999998,-9.773943107027268,0.83906332690268992,-0.10354399660545975,-9.3031354328829572,1.4331227882721933,0.15865572670065428,-0.051329796444792353,-0.40672113317009484,0.0083736801645380131,
0.024362999999999999,-9.773943107027268,0.83906332690268992,-0.10354876292936219,-9.3032697454090574,1.2276627274359824,0.16455041872403922,-0.04271361270469104,-0.40648493630959354,0.0086282409464138576,
0.024902000000000001,-9.7753534169272047,0.53469882913215838,-0.094439744396408024,-9.3032697454090574,1.2276627274359824,0.16454597509971888,-0.042713612946396314,-0.40648493506571198,0.0086282409464138576,
0.025808000000000001,-9.7753534169272047,0.53469882913215838,-0.094444510720310459,-9.30156110138096,1.0572657566918107,0.16183363575484844,-0.035933593253542416,-0.40629228293387176,0.0085123838971301463,
0.027241000000000001,-9.7753534169272047,0.53469882913215838,-0.094449277044212895,-9.3082275817533962,0.94602624743846153,0.16005233455220422,-0.033158133063837587,-0.40676120315626091,0.008260245293862668,
0.028642999999999998,-9.7753534169272047,0.53469882913215838,-0.094454043368115331,-9.3217701770583261,0.82762881600507465,0.15928379644057419,-0.028586829649585605,-0.4074836171259601,0.0087658017340414441,
0.028843000000000001,-9.8158462786972347,0.36467210864972827,-0.08594446782707342,-9.3217701770583261,0.82762881600507465,0.15927935281625386,-0.028586829891290879,-0.40748361588207854,0.0087658017340414441,
0.030075999999999999,-9.8158462786972347,0.36467210864972827,-0.085971348466234776,-9.3288977187730779,0.73125648913446362,0.15929687773115878,-0.025611453196377133,-0.40777251272974141,0.0087715165581341934,
0.031517999999999997,-9.8158462786972347,0.36467210864972827,-0.085998229105396132,-9.3288371652200262,0.63387845750577954,0.16071048929645856,-0.02203866933255251,-0.40803264356262808,0.0088273062044536051,
0.032799000000000002,-9.8618563175821148,0.25928904871952763,-0.07950821289547412,-9.3288371652200262,0.63387845750577954,0.16068542858628271,-0.022038670695697867,-0.40803263654750876,0.0088273062044536051,
0.032983999999999999,-9.8618563175821148,0.25928904871952763,-0.079535093534635476,-9.3232819484401777,0.53846186551694275,0.15955894608682555,-0.017805767830875271,-0.40756080000989137,0.0091198140683478104,
0.034370999999999999,-9.8618563175821148,0.25928904871952763,-0.079561974173796832,-9.3230388837221998,0.49235604972144598,0.15980132825051185,-0.017322025757845066,-0.40730908189674897,0.0086288611652810543,
0.035809000000000001,-9.8618563175821148,0.25928904871952763,-0.079588854812958187,-9.3246156531363837,0.44928312761395217,0.15644010937255703,-0.016309841002669159,-0.40746599142798445,0.0081424477720416846,
0.036727000000000003,-9.8962950025112431,0.19287846667484043,-0.079934111526365578,-9.3246156531363837,0.44928312761395217,0.15641504866238118,-0.016309842365814516,-0.40746598441286513,0.0081424477720416846,
0.037238,-9.8962950025112431,0.19287846667484043,-0.079960992165526934,-9.3231260739203972,0.4077958772236242,0.15183998511056829,-0.014992093706950389,-0.40730832837627645,0.0086249993211678731,
0.038689000000000001,-9.8962950025112431,0.19287846667484043,-0.07998787280468829,-9.3166019963980933,0.38005636408341226,0.15047486520679471,-0.015094822067373557,-0.40678346680740241,0.0083537906966597939,
0.040118000000000001,-9.8962950025112431,0.19287846667484043,-0.079993313135437866,-9.3087674962486862,0.32862560020055326,0.14793896235833706,-0.012821006239388906,-0.40651762590874518,0.008420303414718824,
0.040647999999999997,-9.8671204374907653,0.21248760916468515,-0.09329600994420606,-9.3087674962486862,0.32862560020055326,0.14793389036018414,-0.012821006515273774,-0.40651762448896611,0.008420303414718824,
0.041537999999999999,-9.8671204374907653,0.21248760916468515,-0.093301450274955636,-9.2998615624951348,0.2925940081805305,0.14810380810997811,-0.011500481221729586,-0.40591999154702485,0.0084126230187888309,
0.042967999999999999,-9.8671204374907653,0.21248760916468515,-0.093306890605705212,-9.2922713937486314,0.27410974823475726,0.14562242661466057,-0.011450815386270042,-0.40525131180334656,0.0086712118480673939,
0.044407000000000002,-9.8671204374907653,0.21248760916468515,-0.093312330936454788,-9.2881693189110859,0.2543903073620245,0.14193586516158369,-0.010875250639640482,-0.40536678689455286,0.008976539964543527,
0.044585,-9.8348102321192634,0.16156538286309818,-0.10413131869387617,-9.2881693189110859,0.2543903073620245,0.14193079316343077,-0.010875250915525351,-0.40536678547477378,0.008976539964543527,
0.045844000000000003,-9.8348102321192634,0.16156538286309818,-0.10413675902462574,-9.278707616459771,0.25266271730942158,0.13865687842495605,-0.01160824272826823,-0.40452419577398852,0.0090481867395810975,
0.047258000000000001,-9.8348102321192634,0.16156538286309818,-0.10414219935537532,-9.2675577060808525,0.23279676205639951,0.13417430342350542,-0.010859563656987816,-0.40370444276997713,0.0084776877286622532,
0.048544999999999998,-9.8101060718345359,0.12929747795785632,-0.10593002229968784,-9.2675577060808525,0.23279676205639951,0.1341692314253525,-0.010859563932872685,-0.40370444135019806,0.0084776877286622532,
0.048698999999999999,-9.8101060718345359,0.12929747795785632,-0.10593546263043742,-9.2556093671162465,0.20561750576083015,0.13179710136097139,-0.0095095923131745339,-0.4031793474973312,0.0084418213912664155,
0.050133999999999998,-9.8101060718345359,0.12929747795785632,-0.10593478181544032,-9.2457712958202976,0.19470089597211521,0.13089260061249508,-0.0096142654717591876,-0.40295520545128483,0.0085795893011937231,
0.051588000000000002,-9.8101060718345359,0.12929747795785632,-0.10593410100044322,-9.2381803438175023,0.17527398860613974,0.12719928276163237,-0.0085359523492292144,-0.40205735169063289,0.0076306063292874904,
0.052468000000000001,-9.7806139183147423,0.13356180389033145,-0.11677919222669185,-9.2381803438175023,0.17527398860613974,0.1271999174826754,-0.0085359523147043731,-0.40205735186830716,0.0076306063292874904,
0.053017000000000002,-9.7806139183147423,0.13356180389033145,-0.11677851141169475,-9.235588412938986,0.16983331310358468,0.12369392118007839,-0.0086972569094149223,-0.40249078523394044,0.0073187627588977211,
0.054457999999999999,-9.7806139183147423,0.13356180389033145,-0.11677783059669765,-9.2257526802297232,0.17175682040828438,0.1217515952709167,-0.0095566869586162454,-0.40174991250857195,0.0082118835045063773,
0.055863999999999997,-9.7806139183147423,0.13356180389033145,-0.11677714978170055,-9.2136912020378432,0.15505345030970366,0.11864542921908397,-0.0087318904844430733,-0.40107111561158021,0.0084389102573638741,
0.056411000000000003,-9.7619217901661699,0.1397817030297806,-0.12579251927363946,-9.2136912020378432,0.15505345030970366,0.118646063940127,-0.008731890449918232,-0.40107111578925447,0.0084389102573638741,
0.057298000000000002,-9.7619217901661699,0.1397817030297806,-0.12579183845864236,-9.2004195053469857,0.14017162076135081,0.11626712211002373,-0.0080921254820603625,-0.40024042008443195,0.0078967470288335978,
0.058751999999999999,-9.7619217901661699,0.1397817030297806,-0.12579115764364526,-9.1970493235524042,0.12793815539025521,0.11721957874178883,-0.007448030929982986,-0.40041963246180579,0.0087219287158103558,
0.060174999999999999,-9.7619217901661699,0.1397817030297806,-0.12578948964690237,-9.1930226776593358,0.11684076202626338,0.11409241848471709,-0.0067801078838718755,-0.40002896030413626,0.0089103104005227134,
0.060366000000000003,-9.7475838749626043,0.14371954991397243,-0.14528354736413707,-9.1930226776593358,0.11684076202626338,0.1140939735512725,-0.0067801077992860146,-0.40002896073943828,0.0089103104005227134,
0.061637999999999998,-9.7475838749626043,0.14371954991397243,-0.14528187936739417,-9.1974523072555048,0.11400528299602281,0.11240679185063572,-0.0070107663687561652,-0.40054660587111435,0.0087314016642235977,
0.063083,-9.7475838749626043,0.14371954991397243,-0.14528021137065128,-9.2005927124379063,0.11088591432767285,0.11054354490546761,-0.0070334198680854602,-0.40084772481023195,0.0092295839077731878,
0.064308000000000004,-9.7326873264910141,0.10570078402948574,-0.14271633441287779,-9.2005927124379063,0.11088591432767285,0.11054509997202303,-0.0070334197834995994,-0.40084772524553397,0.0092295839077731878,
0.064473000000000003,-9.7326873264910141,0.10570078402948574,-0.14271466641613489,-9.1984404262815573,0.1090713515538619,0.10964932013221589,-0.0069453240009257457,-0.40058592148198818,0.008812218101513716,
0.065914,-9.7326873264910141,0.10570078402948574,-0.142712998419392,-9.1951977281803465,0.098557627340832274,0.108480844158338,-0.0065316807668528657,-0.40034958361891282,0.0084644693789216238,
0.067343,-9.7326873264910141,0.10570078402948574,-0.14271133042264911,-9.1926172320449258,0.085565312982654546,0.10975269746015846,-0.0055870230586416566,-0.40026668383067093,0.0087730204448666759,
0.068251999999999993,-9.7301927895840503,0.087825281319193857,-0.14056547096298005,-9.1926172320449258,0.085565312982654546,0.10975425252671388,-0.0055870229740557957,-0.40026668426597295,0.0087730204448666759,
0.068796999999999997,-9.7301927895840503,0.087825281319193857,-0.14056380296623716,-9.2011090554466293,0.082417112945039159,0.11062590604169435,-0.0059233294595457189,-0.40090934629801328,0.0089374682869315294,
0.070210999999999996,-9.7301927895840503,0.087825281319193857,-0.14055990787922343,-9.2062140919918942,0.081266040810718046,0.11041423469165727,-0.0058277383181361683,-0.40088055735103639,0.0085036184712509802,
0.071618000000000001,-9.7301927895840503,0.087825281319193857,-0.14055601279220969,-9.2179607418887315,0.079668854158320243,0.11032282510609261,-0.0058808143468410002,-0.40187760164407915,0.0088091081652602911,
0.072187000000000001,-9.7282803791372583,0.076528128238143367,-0.15140027673933668,-9.2179607418887315,0.079668854158320243,0.11032645647981756,-0.0058808141493170594,-0.40187760266059147,0.0088091081652602911,
0.073052000000000006,-9.7282803791372583,0.076528128238143367,-0.15139638165232294,-9.2253359003950912,0.081911633434382847,0.11274168910245121,-0.0062080845401256742,-0.40200050311059077,0.0087801829302082933,
0.074493000000000004,-9.7282803791372583,0.076528128238143367,-0.15139248656530921,-9.2339107313103757,0.072126291111247368,0.11447841967955664,-0.0056649005250365252,-0.40281652603888068,0.0085965270654930551,
0.075922000000000003,-9.7282803791372583,0.076528128238143367,-0.15138859147829548,-9.2333134382669968,0.06321460299711476,0.11710130451338439,-0.0049869947863756571,-0.4027424687598527,0.0088027548784125765,
0.076123999999999997,-9.7558044614632955,0.076423175206400143,-0.15360089215587924,-9.2333134382669968,0.06321460299711476,0.11710493588710935,-0.0049869945888517163,-0.40274246977636502,0.0088027548784125765,
0.077341999999999994,-9.7558044614632955,0.076423175206400143,-0.15359699706886551,-9.2351095426340137,0.057191316517612778,0.12057244836321566,-0.0046803493017842143,-0.40296442952769684,0.0089101163240508548,
0.078783000000000006,-9.7558044614632955,0.076423175206400143,-0.15359310198185178,-9.2373920910520546,0.057215721094207056,0.12125824080441548,-0.0045674323910222534,-0.40297115572173409,0.0085714212694615547,
0.080060000000000006,-9.7769176231464154,0.0367608672645428,-0.15545137519603242,-9.2373920910520546,0.057215721094207056,0.12126187217814044,-0.0045674321934983126,-0.40297115673824641,0.0085714212694615547,
0.080221000000000001,-9.7769176231464154,0.0367608672645428,-0.15544488579126459,-9.2480937662678091,0.06203371344068339,0.12294142675135213,-0.0051418728473668091,-0.40369841873197448,0.0088843749091593368,
0.081689999999999999,-9.7769176231464154,0.0367608672645428,-0.15543839638649676,-9.2613275922131848,0.066419759855941632,0.1245538512218694,-0.0053565217146672832,-0.40418000450100489,0.0089096587196006299,
0.083068000000000003,-9.7769176231464154,0.0367608672645428,-0.15543190698172893,-9.2778233798056995,0.063393956696619305,0.12485828132423138,-0.0051854989381285299,-0.4052905634564492,0.0086856634060228956,
0.084006999999999998,-9.7775086821379382,0.011654761201290029,-0.1420926994051217,-9.2778233798056995,0.063393956696619305,0.12486433136980969,-0.0051854986090440194,-0.40529056515000822,0.0086856634060228956,
0.084542999999999993,-9.7775086821379382,0.011654761201290029,-0.14208621000035387,-9.292563928684439,0.059243712054562733,0.12705759296059599,-0.0051003382798346852,-0.40600729667370605,0.0086187997448360278,
0.085944000000000007,-9.7775086821379382,0.011654761201290029,-0.14207972059558605,-9.2965199298368173,0.052635597681237004,0.12786710266758278,-0.0046645846936558266,-0.40616631771288336,0.0086086842943355005,
0.087400000000000005,-9.7775086821379382,0.011654761201290029,-0.14207323119081822,-9.2895573240221641,0.050558205037625079,0.1291857574078582,-0.004494204833643504,-0.40576733092133022,0.0083557442596089247,
0.087960999999999998,-9.8304194956908084,0.039818689375356098,-0.1343039821257738,-9.2895573240221641,0.050558205037625079,0.12919180745343653,-0.0044942045045589935,-0.40576733261488923,0.0083557442596089247,
0.088803000000000007,-9.8304194956908084,0.039818689375356098,-0.13429749272100597,-9.285246133795388,0.061592788446824448,0.12944751217506589,-0.0052145623022429892,-0.40542946369656957,0.0083085897221621876,
0.090247999999999995,-9.8304194956908084,0.039818689375356098,-0.13428482089714172,-9.2864527782570701,0.066335237896550742,0.12845961694507801,-0.0056187064967832814,-0.40535718406554566,0.0082173854019406013,
0.091702000000000006,-9.8304194956908084,0.039818689375356098,-0.13427214907327747,-9.2951178914988386,0.071420471543370376,0.12913887286678807,-0.0059211633950228696,-0.40585641979017706,0.0081474878998688879,
0.091869000000000006,-9.8709323671373905,0.065488283955609128,-0.12775240010140573,-9.2951178914988386,0.071420471543370376,0.12915068675645622,-0.005921162752421414,-0.40585642309718012,0.0081474878998688879,
0.093112,-9.8709323671373905,0.065488283955609128,-0.12773972827754149,-9.3089691197142539,0.073000493671193226,0.13115731621490526,-0.0058326935405562264,-0.40691253521646065,0.0083619030515898977,
0.094534000000000007,-9.8709323671373905,0.065488283955609128,-0.12772705645367724,-9.3114376784690336,0.068076302561923846,0.13145664702460969,-0.0053704394538843609,-0.4070879310876655,0.008338055568470738,
0.095895999999999995,-9.8534820066748363,0.081836469916414495,-0.12644241867462178,-9.3114376784690336,0.068076302561923846,0.13146846091427783,-0.0053704388112829054,-0.40708793439466856,0.008338055568470738,
0.095971000000000001,-9.8534820066748363,0.081836469916414495,-0.12642974685075753,-9.3051777055927332,0.066439770227931419,0.13233668736988197,-0.0054040884333377559,-0.40683244326500978,0.0084466181411412197,
0.097436999999999996,-9.8534820066748363,0.081836469916414495,-0.12641707502689328,-9.2903342383404759,0.072180634221437889,0.13086536564165532,-0.005720771287689148,-0.40563867722648822,0.0084502697090155492,
0.098847000000000004,-9.8534820066748363,0.081836469916414495,-0.12640440320302904,-9.2823839451968642,0.083338340346216691,0.1278827852826217,-0.0062072198451138339,-0.40523661551488421,0.0083612387841011278,
0.099877999999999995,-9.8524137713103297,0.056788902794474225,-0.12150230716899525,-9.2823839451968642,0.083338340346216691,0.12789459917228985,-0.0062072192025123783,-0.40523661882188727,0.0083612387841011278,
0.100273,-9.8524137713103297,0.056788902794474225,-0.12147764474887901,-9.2723039511916436,0.096566659757137213,0.12341681501788147,-0.0071867448251805846,-0.40444797490281198,0.008368897390951844,
0.10169,-9.8524137713103297,0.056788902794474225,-0.12145298232876277,-9.2748265756217538,0.10309830935447718,0.11828050385634205,-0.0076072054696974811,-0.40453588340219798,0.0084679057635455544,
0.10316400000000001,-9.8524137713103297,0.056788902794474225,-0.12142831990864653,-9.282611405060976,0.10680782655563557,0.11524797751812998,-0.0077171545034645239,-0.40514061931244466,0.0081147911755890378,
0.103781,-9.85159784113565,0.093846943565861249,-0.11732088793311855,-9.282611405060976,0.10680782655563557,0.11527097019174383,-0.0077171532528073775,-0.40514062574866883,0.0081147911755890378,
0.10456699999999999,-9.85159784113565,0.093846943565861249,-0.11729622551300231,-9.2847585821701362,0.10828696343498566,0.11395873166521224,-0.0077365166309923267,-0.40525270005863695,0.0082585170106153124,
0.10601099999999999,-9.85159784113565,0.093846943565861249,-0.11727156309288607,-9.277803456786458,0.10556557012907197,0.10986062534756705,-0.0076175552471835538,-0.40507819561764746,0.0084595869913946572,
0.107447,-9.85159784113565,0.093846943565861249,-0.11724690067276983,-9.2590296769911209,0.11059654284453291,0.11053421770696646,-0.007880227696065013,-0.40365621687466408,0.0083810256372898011,
0.107705,-9.8398254532397882,0.11727676495954187,-0.14662665663848987,-9.2590296769911209,0.11059654284453291,0.11055721038058031,-0.0078802264454078674,-0.40365622331088824,0.0083810256372898011,
0.108871,-9.8398254532397882,0.11727676495954187,-0.14660199421837361,-9.2419594455922951,0.11536171425221653,0.10869155158847131,-0.0078396385969511841,-0.40304663233132804,0.0081383223476467845,
0.110301,-9.8398254532397882,0.11727676495954187,-0.14658850531335904,-9.2223101399785836,0.12282603670276353,0.10751073485181943,-0.0081678779166505892,-0.40158030918476206,0.0084852258216527397,
0.111696,-9.7972488150643962,0.12951315719618073,-0.15108554123730633,-9.2223101399785836,0.12282603670276353,0.10752331050290906,-0.0081678772326140934,-0.40158031270500122,0.0084852258216527397,
0.111719,-9.7972488150643962,0.12951315719618073,-0.15107205233229176,-9.2146680337699802,0.1245695506125403,0.10710332781863902,-0.0079366065017259669,-0.40123257301370169,0.0085289303823862864,
0.113152,-9.7972488150643962,0.12951315719618073,-0.15105856342727719,-9.221561528533357,0.12220233011377619,0.10392881239758603,-0.0080164566847779548,-0.4015584651748933,0.0086325556146908712,
0.11459999999999999,-9.7972488150643962,0.12951315719618073,-0.15104507452226262,-9.2368431725513531,0.11848930713543475,0.10635574939740081,-0.0074616967329711355,-0.40267456941032642,0.0089239190778823731,
0.115609,-9.764672321669897,0.12138274289338941,-0.15482521983936734,-9.2368431725513531,0.11848930713543475,0.10636832504849043,-0.0074616960489346388,-0.40267457293056558,0.0089239190778823731,
0.11602700000000001,-9.764672321669897,0.12138274289338941,-0.15481173093435277,-9.2475448132701494,0.11877991919216845,0.10453176038777703,-0.0076861135311850444,-0.40334307268137742,0.0089870478474044675,
0.117442,-9.764672321669897,0.12138274289338941,-0.1547982420293382,-9.2416327723808429,0.11822459515132148,0.10332630926237184,-0.0076008588303317281,-0.40319103642708515,0.0088212027859763502,
0.118885,-9.764672321669897,0.12138274289338941,-0.15478475312432363,-9.2267002354275043,0.12311065192444609,0.10366322014495571,-0.0079135184812617575,-0.40209534507846684,0.0088239687384354705,
0.119542,-9.7625400469739212,0.11623897913138256,-0.1564416933532714,-9.2267002354275043,0.12311065192444609,0.10367579579604534,-0.0079135177972252616,-0.40209534859870599,0.0088239687384354705,
0.120338,-9.7625400469739212,0.11623897913138256,-0.15643933040946253,-9.2114613326632586,0.12412177116073508,0.10237508984631331,-0.0082986739878911659,-0.40126841522279694,0.0084948657088055896,
0.12178899999999999,-9.7625400469739212,0.11623897913138256,-0.15643696746565366,-9.2041537229673711,0.12110036560237929,0.10500530495185634,-0.0078190764743507266,-0.40071456499608449,0.0085819405538007012,
0.12321,-9.7625400469739212,0.11623897913138256,-0.15643460452184479,-9.2193087330001244,0.11487586755612859,0.10511401576555218,-0.0076316620613740569,-0.40156426552751479,0.0086543081190690232,
0.12348000000000001,-9.7224434302221905,0.1050646332521442,-0.15478625170343466,-9.2193087330001244,0.11487586755612859,0.10511621872842077,-0.0076316619415467022,-0.40156426614417917,0.0086543081190690232,
0.124612,-9.7224434302221905,0.1050646332521442,-0.15478388875962579,-9.2477983579932364,0.10549877213434498,0.1075300688560432,-0.0069854149151035621,-0.40312613042068746,0.0087729919652505001,
0.12604899999999999,-9.7224434302221905,0.1050646332521442,-0.15478152581581692,-9.2847508729282318,0.10168092762383341,0.10893519967348674,-0.0068620396925189514,-0.40525149601680732,0.0089176500681915037,
0.127443,-9.6916428717149241,0.11208447301940501,-0.15339538778312645,-9.2847508729282318,0.10168092762383341,0.10893740263635532,-0.0068620395726915967,-0.40525149663347171,0.0089176500681915037,
0.12749199999999999,-9.6916428717149241,0.11208447301940501,-0.15339302483931758,-9.3250124424469423,0.099191085130208245,0.11154942858315507,-0.006656321479524191,-0.40784060732354088,0.0086486323344293695,
0.12892500000000001,-9.6916428717149241,0.11208447301940501,-0.15339066189550871,-9.3509015083754221,0.097266510845861229,0.1136689445921996,-0.0066928219805740385,-0.4094124899073901,0.0084889957598404397,
0.13034499999999999,-9.6916428717149241,0.11208447301940501,-0.15341868877955608,-9.3575288817800839,0.093400830304945989,0.11627597208890643,-0.0064018163523456902,-0.40968121850292066,0.0087366871713178227,
0.131354,-9.7934016426478401,0.11651055344345296,-0.14922637422861246,-9.3575288817800839,0.093400830304945989,0.11624984273930178,-0.0064018177736183254,-0.40968121118866246,0.0087366871713178227,
0.13178000000000001,-9.7934016426478401,0.11651055344345296,-0.14925440111265983,-9.358865418403445,0.087781793108057435,0.12021274041807903,-0.0061679609906057321,-0.40932989964367317,0.0082173053845969943,
0.133217,-9.7934016426478401,0.11651055344345296,-0.14928242799670721,-9.3718661149689204,0.077425027825999373,0.12476000290266154,-0.005510617471117309,-0.40983456017863751,0.0081728825922095204,
0.134633,-9.7934016426478401,0.11651055344345296,-0.14931045488075459,-9.4017834430088261,0.072828638832300202,0.1288693853543165,-0.0053951578786138642,-0.41162126671956589,0.0081960196253533825,
0.135295,-9.828056687156332,0.085001571316764793,-0.13013565495489449,-9.4017834430088261,0.072828638832300202,0.12884325600471183,-0.0053951592998864994,-0.41162125940530769,0.0081960196253533825,
0.13606499999999999,-9.828056687156332,0.085001571316764793,-0.13016368183894186,-9.4419143477022534,0.075685563608727482,0.13284171873363851,-0.0056013269094831808,-0.4140042280927107,0.008392611791938967,
0.13750699999999999,-9.828056687156332,0.085001571316764793,-0.13019170872298924,-9.4810423281520677,0.077014207496190687,0.13444155516657863,-0.0058574915799201677,-0.41636867577015729,0.0080913187886539496,
0.13894500000000001,-9.828056687156332,0.085001571316764793,-0.13021973560703662,-9.504188852843928,0.078903388492197871,0.13781369155400353,-0.0060936395334146836,-0.41794205575126864,0.0080035515094729077,
0.139205,-9.8546161597124513,0.075639375842060555,-0.11409998977128331,-9.504188852843928,0.078903388492197871,0.13778756220439886,-0.0060936409546873188,-0.41794204843701044,0.0080035515094729077,
0.140373,-9.8546161597124513,0.075639375842060555,-0.11415161411574541,-9.5015309470812923,0.076906288004106094,0.14061987914949217,-0.0059723996515673198,-0.41738263964855449,0.0083378026026292244,
0.14182800000000001,-9.8546161597124513,0.075639375842060555,-0.11420323846020751,-9.4933396890491135,0.071458563883926129,0.14455595000210128,-0.0058301306017841557,-0.41649091071441763,0.0083451930982848723,
0.14313699999999999,-10.009205170642085,0.069707056720966304,-0.1036984307981741,-9.4933396890491135,0.071458563883926129,0.14450782083646585,-0.0058301332197087151,-0.41649089724186089,0.0083451930982848723,
0.14326800000000001,-10.009205170642085,0.069707056720966304,-0.1037500551426362,-9.4944057874596695,0.06373955607577593,0.1486432939610827,-0.0052955365704635531,-0.41586371698733327,0.0082530343060212112,
0.144673,-10.009205170642085,0.069707056720966304,-0.1038016794870983,-9.5219289176941952,0.060207671202857548,0.15372355888793235,-0.0048778547809469296,-0.41749892985879045,0.0085050458334771442,
0.14611199999999999,-10.009205170642085,0.069707056720966304,-0.1038533038315604,-9.561461802391312,0.061297850026008516,0.15673208891115897,-0.0051570932949087153,-0.41988122183762022,0.0085632169446828964,
0.14707700000000001,-10.024843499450968,0.050993569597906629,-0.09041821285425132,-9.561461802391312,0.061297850026008516,0.15668395974552354,-0.0051570959128332747,-0.41988120836506349,0.0085632169446828964,
0.14754400000000001,-10.024843499450968,0.050993569597906629,-0.090469837198713418,-9.605784121926245,0.06119918718822101,0.16085865389595824,-0.0054909880219543173,-0.42254743749099222,0.0085604958720576704,
0.14896699999999999,-10.024843499450968,0.050993569597906629,-0.090521461543175516,-9.6301935999635617,0.061589119449171462,0.16420326931290391,-0.0055885683879421874,-0.42433362982680384,0.0087708425793178064,
0.15040500000000001,-10.024843499440653,0.050993569597906629,-0.090618304381899717,-9.6219791669833725,0.056225353666768924,0.16881102752114319,-0.0051818696496971342,-0.42317592710947394,0.0089727096410718871,
0.15096000000000001,-10.036816903509603,0.039190381348859826,-0.079346987146323295,-9.6219791669737553,0.056225353666768924,0.1687207413378681,-0.0051818745606988827,-0.42317590183569187,0.0089727096410713632,
0.15184,-10.036816903499288,0.039190381348859826,-0.079443829985047495,-9.6012320172207808,0.048383718220846819,0.17180005120628669,-0.0045981886618632929,-0.42167404372507561,0.0086261721652254927,
0.15325900000000001,-10.036816903488972,0.039190381348859826,-0.079540672823771696,-9.5784026911199653,0.043534984803230342,0.17377678310207509,-0.0041689353503497175,-0.41934284927324939,0.0086196567556026636,
0.154691,-10.036816903478657,0.039190381348859826,-0.079637515662495897,-9.5964114278902084,0.047258692476657385,0.17398355093708984,-0.0042079325593101808,-0.42044465184855301,0.0087540726882749595,
0.154888,-10.142255845067279,0.027307204294826838,-0.06592066110975224,-9.5964114278805912,0.047258692476657385,0.17389326475381475,-0.0042079374703119293,-0.42044462657477094,0.0087540726882744356,
0.15612400000000001,-10.142255845056964,0.027307204294826838,-0.066017503948476441,-9.6287398918695963,0.057893197860698881,0.1719032011731661,-0.0047819705331098644,-0.42223658942992282,0.0086232922245443096,
0.15756500000000001,-10.142255845046648,0.027307204294826838,-0.066114346787200642,-9.6722018017630695,0.065720358165684264,0.17169604559046109,-0.0054225021064910764,-0.42523361820650318,0.0089715107571116965,
0.158804,-10.181484920964301,0.042615612037035164,-0.054548793508690095,-9.6722018017534523,0.065720358165684264,0.171605759407186,-0.0054225070174928249,-0.42523359293272112,0.0089715107571111726,
0.15898599999999999,-10.181484920953986,0.042615612037035164,-0.054645636347414289,-9.6922138534731701,0.068859514518006384,0.17031706134170446,-0.0057365166614274203,-0.42662476939712218,0.0085476852427002602,
0.16042200000000001,-10.181484920953986,0.042615612037035164,-0.054790716991758935,-9.6770361715987203,0.067139193796338884,0.16921582745262528,-0.005609727582860104,-0.42514367734105163,0.0084970521710031888,
0.161858,-10.181484920953986,0.042615612037035164,-0.054935797636103581,-9.6394557675719721,0.063350562690623044,0.16805261464724691,-0.0053465649553821439,-0.42283491384173622,0.0083042727279950893,
0.16272900000000001,-10.211614317018855,0.052315479602181844,-0.064978448078676643,-9.6394557675719721,0.063350562690623044,0.16791735655467618,-0.0053465723125735217,-0.42283487597961456,0.0083042727279950893,
0.163304,-10.211614317018855,0.052315479602181844,-0.065123528723021296,-9.5891857476313938,0.068425250802937099,0.16730301455167168,-0.0054149271485511227,-0.4189367362296379,0.0082092887138302435,
0.16475100000000001,-10.211614317018855,0.052315479602181844,-0.065268609367365948,-9.5782913503544762,0.079985303949510173,0.16627178500974391,-0.0057823953155124331,-0.41814632996009277,0.0083943656160185218,
0.166158,-10.211614317018855,0.052315479602181844,-0.065413690011710601,-9.5952830662160462,0.096664625339879864,0.16601457026888441,-0.0067153101102202135,-0.41933510382285971,0.0085617775015975894,
0.16666300000000001,-10.156821418847084,0.0575823117074259,-0.069605764476930149,-9.5952830662160462,0.096664625339879864,0.16587931217631369,-0.0067153174674115914,-0.41933506596073805,0.0085617775015975894,
0.16758100000000001,-10.156821418847084,0.0575823117074259,-0.069750845121274802,-9.6249054050520293,0.10438240170250848,0.16542370003826501,-0.0072966784544170544,-0.42146118972491559,0.0086718371447289493,
0.169049,-10.156821418847084,0.0575823117074259,-0.069895925765619454,-9.6365259180785916,0.10156306629147538,0.16495766949178464,-0.0071251015746849732,-0.42273997729618901,0.0085867075919682026,
0.17044300000000001,-10.156821418847084,0.0575823117074259,-0.070102659365641098,-9.6093597795841283,0.097867879272509672,0.16487708785410302,-0.0071761998178865227,-0.42091120120293268,0.0086044281632083313,
0.17056199999999999,-10.221010975655519,0.09689469692669693,-0.073598133789072567,-9.6093597795841283,0.097867879272509672,0.16468435096259335,-0.0071762103015638344,-0.42091114725105816,0.0086044281632083313,
0.171898,-10.221010975655519,0.09689469692669693,-0.073804867389094211,-9.5691010729626811,0.10046847997546464,0.16196801095015781,-0.0069983992427459533,-0.4185526869200632,0.008009635171123972,
0.173314,-10.221010975655519,0.09689469692669693,-0.074011600989115855,-9.5160157257435785,0.10757164455311015,0.15797809034700497,-0.0072616579337736716,-0.41478074651942942,0.0077690273500089632,
0.17449000000000001,-10.270328103432549,0.12182565933587666,-0.091730635072671818,-9.5160157257435785,0.10757164455311015,0.1577853534554953,-0.0072616684174509833,-0.4147806925675549,0.0077690273500089632,
0.17476800000000001,-10.270328103432549,0.12182565933587666,-0.091937368672693462,-9.4901619195102427,0.12840863526343796,0.15532470794847011,-0.0086616064305655889,-0.41306899475387387,0.008244915736060756,
0.176204,-10.270328103432549,0.12182565933587666,-0.092144102272715106,-9.4983664605340312,0.13389030505702074,0.15315142503482709,-0.0087593129784210751,-0.41389270058624605,0.007971493011086659,
0.17762600000000001,-10.270328103432549,0.12182565933587666,-0.09235083587273675,-9.5175765054747785,0.13302441844342866,0.15180764400288119,-0.0084888879523304615,-0.41540690446727818,0.0080391570527686331,
0.17843000000000001,-10.089939563783471,0.15785807142329941,-0.10678441541545702,-9.5175765054747785,0.13302441844342866,0.15161490711137152,-0.0084888984360077732,-0.41540685051540366,0.0080391570527686331,
0.17904500000000001,-10.089939563783471,0.15785807142329941,-0.10699114901547867,-9.5214285095753493,0.13557185809925867,0.15499912241016736,-0.0088288301146653772,-0.41655679634040038,0.0083526997131029984,
0.18048800000000001,-10.089939563783471,0.15785807142329941,-0.10725397764511005,-9.4869502283395288,0.12176046420876879,0.15365286500172087,-0.0078896188156860059,-0.41419355570724237,0.0083557417652140361,
0.181924,-10.089939563783471,0.15785807142329941,-0.10751680627474143,-9.4408483828805583,0.11971893380242196,0.15416243263420859,-0.0074012733369047843,-0.41153728745124901,0.0083938370688448668,
0.18237800000000001,-9.9552686038482374,0.14106348725111398,-0.11959463055568277,-9.4408483828805583,0.11971893380242196,0.15391739857554759,-0.0074012866652197803,-0.41153721886008998,0.0083938370688448668,
0.183339,-9.9552686038482374,0.14106348725111398,-0.11985745918531415,-9.3809384254258852,0.129789944374124,0.15446520025244459,-0.0085773016935969011,-0.40758882559348625,0.0079375657464521073,
0.184779,-9.9552686038482374,0.14106348725111398,-0.12012028781494553,-9.3622951868600133,0.11842030311194099,0.15251782207835499,-0.0074658436280052205,-0.40622071831941181,0.0080354839846247441,
0.18621499999999999,-9.9552686038482374,0.14106348725111398,-0.12038311644457692,-9.3777204454744911,0.11499898463856725,0.1520626339146762,-0.0074805143407441176,-0.40768097533273012,0.008388830030726567,
0.186308,-9.9945925803993845,0.13044953570748588,-0.12164717973067822,-9.3777204454744911,0.11499898463856725,0.1518175998560152,-0.0074805276690591135,-0.40768090674157109,0.008388830030726567,
0.18765899999999999,-9.9945925803993845,0.13044953570748588,-0.1219100083603096,-9.4093251644119995,0.11204821356006378,0.1536544383780985,-0.0077349631799233341,-0.40983224833726256,0.0085745480554350051,
0.18906700000000001,-9.9945925803993845,0.13044953570748588,-0.12217283698994098,-9.4418021225408655,0.097791850548326648,0.15114258317082904,-0.0065120770880414229,-0.4127976774705433,0.0085051028474510352,
0.19031300000000001,-9.9292907522901004,0.10780478187805362,-0.11248779124862079,-9.4418021225408655,0.097790888849776617,0.15086264233989716,-0.0065120500976590112,-0.41279759910810598,0.0085051025782475684,
0.19050300000000001,-9.9292907522901004,0.10780375034017924,-0.11278806160847919,-9.4324745703689867,0.096750327403950898,0.14970766307855682,-0.0067046270394456519,-0.41181907732148532,0.0086322058700521211,
0.19193099999999999,-9.9292907522901004,0.10780271880230485,-0.11308833196833759,-9.4141510148411971,0.099073604730818887,0.14695373526020361,-0.0068825815198121851,-0.41094444938132435,0.0083203435500554691,
0.19340399999999999,-9.9292907522901004,0.10780168726443047,-0.11338860232819599,-9.3864122346281338,0.097770401918790426,0.14487268095784553,-0.006782257158728773,-0.40876894792009949,0.008109132538101008,
0.19430500000000001,-9.782898153869203,0.10057127107500344,-0.1050935529394233,-9.3864122346281338,0.097769440220240394,0.14459274012691364,-0.0067822301683463614,-0.40876886955766217,0.0081091322688975412,
0.19481499999999999,-9.782898153869203,0.10057023953712906,-0.10539382329928169,-9.3866990185282688,0.10191524952179232,0.14559157381587631,-0.0072045199782105719,-0.40871458375492026,0.0084861653428624159,
0.19623199999999999,-9.782898153869203,0.10056920799925467,-0.10569409365914009,-9.4082591810320046,0.091718545704183654,0.14611525554005439,-0.006101597140091012,-0.41017636464280521,0.0084987653888480234,
0.19766600000000001,-9.782898153869203,0.10056817646138029,-0.10599436401899849,-9.4356422922050331,0.090171616003243624,0.14845001743796193,-0.0061053948909974469,-0.41205815247254085,0.0082598156146940632,
0.19822400000000001,-9.8139105554242185,0.096026002268926727,-0.12333753198327804,-9.4356422922050331,0.090170654304693593,0.14817007660703005,-0.0061053679006150352,-0.41205807411010353,0.0082598153454905964,
0.199105,-9.8139105554242185,0.096024970731052345,-0.12363780234313644,-9.4556144563762032,0.084666457598221445,0.14951641012165004,-0.006145293406189853,-0.41385054777062247,0.0085374335815776858,
0.20053099999999999,-9.8139105554242185,0.096024970731052345,-0.12395925017555622,-9.4408436655896839,0.073856698758595782,0.14659011780970274,-0.0050900006599055416,-0.41253655260287259,0.0086817700232685469,
0.20197999999999999,-9.8139105554242185,0.096024970731052345,-0.12428069800797599,-9.4238611513750925,0.081544137882421319,0.14587714523110579,-0.0057509885880874185,-0.41159507258137407,0.0088154561014038707,
0.202152,-9.9085017904717301,0.079080613989936488,-0.11543284323019626,-9.4238611513750925,0.081544137882421319,0.14557746072894151,-0.0057510048890435641,-0.41159498869218958,0.0088154561014038707,
0.203403,-9.9085017904717301,0.079080613989936488,-0.11575429106261603,-9.4074801483559067,0.085849789868015933,0.14330044286090907,-0.0060496837967604078,-0.41001269897408454,0.0086627261742149297,
0.20486199999999999,-9.9085017904717301,0.079080613989936488,-0.11607573889503581,-9.4256536123653429,0.077290266471746139,0.14393785389188993,-0.0055087602888031044,-0.41144228902010327,0.0090716534006828678,
0.20608000000000001,-10.009441904249705,0.098264546193112368,-0.1085397879228719,-9.4256536123653429,0.077290266471746139,0.14363816938972565,-0.0055087765897592501,-0.41144220513091878,0.0090716534006828678,
0.206291,-10.009441904249705,0.098264546193112368,-0.10886123575529168,-9.4562609821679366,0.077216795466949831,0.14483980502751129,-0.0056789076910329439,-0.41331172391365328,0.0087394841035547417,
0.207701,-10.009441904249705,0.098264546193112368,-0.10918268358771145,-9.4915248801890364,0.069625726308166949,0.14801360673736355,-0.00492795866577702,-0.41579612501514496,0.0088457285081949156,
0.20913899999999999,-10.009441904249705,0.098264546193112368,-0.10950413142013123,-9.5025665476784091,0.065850174979416656,0.14742361300344564,-0.0048646943266124959,-0.41664896809417201,0.0085573737255758911,
0.21001700000000001,-9.9442190869858891,0.11040833209826609,-0.10533788408106452,-9.5025665476784091,0.065849213280866625,0.14708620106716319,-0.0048646704622975359,-0.4166488736441355,0.0085573734563724243,
0.210563,-9.9442190869858891,0.11040730056039171,-0.10569979914429692,-9.48546255814564,0.068004226833101686,0.14696482735867522,-0.0053522154124672362,-0.4152176317734611,0.0086562799630243072,
0.21199200000000001,-9.9442190869858891,0.11040626902251732,-0.10606171420752931,-9.4609928420002927,0.067092086195728845,0.1455813189453882,-0.0053881736823131439,-0.41401455374792467,0.0085566864059492438,
0.21343899999999999,-9.9442190869858891,0.11040523748464294,-0.10642362927076171,-9.4344574175177893,0.075312366667419806,0.14888332272297464,-0.0059163583915070907,-0.411752545817132,0.0086041982571634177,
0.213951,-10.019561032342665,0.083781378894195624,-0.10732489088756693,-9.4344574175177893,0.075311404968869775,0.14854591078669219,-0.0059163345271921308,-0.41175245136709548,0.0086041979879599509,
0.21487800000000001,-10.019561032342665,0.083780347356321241,-0.10768680595079932,-9.4414733575503789,0.065915028142772697,0.15192432444020901,-0.0055630750305125688,-0.41232720400864692,0.0082674543211318941,
0.21629000000000001,-10.019561032342665,0.083779315818446859,-0.10804872101403172,-9.4546993999468825,0.050305920392717619,0.1552106260729561,-0.0046698967243074358,-0.41301823778786922,0.0079343768128000477,
0.21777099999999999,-10.019561032342665,0.083778284280572476,-0.10841063607726412,-9.4665322526224962,0.047435677819560325,0.16092027546661186,-0.004384883345966888,-0.41428363146718233,0.0082990485748382359,
0.21788099999999999,-10.014968458218069,0.060782339284230505,-0.10899545481885413,-9.4665322526224962,0.047434716121010294,0.16058286353032941,-0.004384859481651928,-0.41428353701714582,0.0082990483056347691,
0.21917700000000001,-10.014968458218069,0.060781307746356122,-0.10935736988208652,-9.4534577682531697,0.041983732190584114,0.1622085815563554,-0.0039319954797632463,-0.41337989869968766,0.0087129912813197624,
0.220586,-10.014968458218069,0.060781307746356122,-0.10972966221633536,-9.4232175333533608,0.042749103064754136,0.16045508738922476,-0.0041078972516976099,-0.41150140163790755,0.0085746924983322557,
0.22181799999999999,-10.011443604493985,0.046226132826739881,-0.086473842585082797,-9.4232175333533608,0.042749103064754136,0.16010800076552889,-0.0041079161310316782,-0.41150130447968414,0.0085746924983322557,
0.222025,-10.011443604493985,0.046226132826739881,-0.08684613491933163,-9.3879213369685228,0.052780762843744437,0.16052957540166379,-0.0050470743355501306,-0.40914432607786277,0.008451763929382473,
0.223464,-10.011443604493985,0.046226132826739881,-0.087218427253580463,-9.3664970596935735,0.055224867152923386,0.16131372540676261,-0.0050570960303198062,-0.40769576242843408,0.0080775772884481879,
0.22489799999999999,-10.011443604493985,0.046226132826739881,-0.087590719587829297,-9.3736161810858771,0.057596144448401873,0.16291607127702409,-0.0049148476830814559,-0.40853815113425113,0.0084921453857851013,
0.22577,-9.9089119634044724,0.034366278253341515,-0.085778354828902087,-9.3736161810858771,0.057596144448401873,0.16256898465332822,-0.0049148665624155242,-0.40853805397602772,0.0084921453857851013,
0.22634299999999999,-9.9089119634044724,0.034366278253341515,-0.08615064716315092,-9.3898770553360471,0.056165405421398966,0.16379386871573934,-0.004711282849667384,-0.40953588677875913,0.0082144839136068879,
0.22777600000000001,-9.9089119634044724,0.034366278253341515,-0.086522939497399753,-9.4021846990937767,0.058647200663233284,0.16470794006843381,-0.0045667441756361039,-0.41090002190891223,0.0084850237108992452,
0.229215,-9.9089119634044724,0.034366278253341515,-0.086895231831648587,-9.3901427467422085,0.072906605911570235,0.16187918719639022,-0.0056107699704999927,-0.41005770738559111,0.0083573951854014374,
0.22971,-9.8302604794625079,0.061203989114461767,-0.085193684548851276,-9.3901427467422085,0.072906605911570235,0.16153210057269435,-0.005610788849834061,-0.4100576102273677,0.0083573951854014374,
0.23060700000000001,-9.8302604794521926,0.061202957576587384,-0.085581800674093364,-9.36584686676043,0.081506151596874576,0.1603785905883261,-0.0059508223019794602,-0.40844086652260164,0.0084274761392122005,
0.23206399999999999,-9.8302604794418773,0.061201926038713002,-0.085969916799335452,-9.336190797595588,0.090623847090013532,0.15634471565668512,-0.0065604409985972525,-0.40657654594081072,0.008100597298953429,
0.23350199999999999,-9.830260479431562,0.061200894500838619,-0.086358032924577541,-9.321420738905724,0.10084377217763926,0.15672204955213401,-0.0070356835079285066,-0.40555146802854142,0.0088561698071591803,
0.23360500000000001,-9.9047084529890785,0.078126808433279515,-0.074474197897421823,-9.3214207388961068,0.10084281047908923,0.15636021047268048,-0.0070356609722968342,-0.40555136674031467,0.0088561695379551896,
0.23491200000000001,-9.9047084529787632,0.078125776895405133,-0.074862314022663912,-9.3320569378356719,0.09605497252432281,0.15343904661576444,-0.0066565058538528002,-0.40630211195451454,0.0089309654974257992,
0.23633299999999999,-9.9047084529684479,0.07812474535753075,-0.075250430147906,-9.351318051900769,0.095039034323021049,0.15186859350372875,-0.0065227180841599987,-0.40749290233959701,0.0085111559999668553,
0.23754700000000001,-9.8488478647081497,0.10469377249363578,-0.087612071387294516,-9.3513180518911518,0.095038072624471018,0.15150675442427522,-0.0065226955485283263,-0.40749280105137026,0.0085111557307628646,
0.23777799999999999,-9.8488478646978344,0.10469274095576139,-0.088000187512536604,-9.3614789085666601,0.10312027803298625,0.14908690994106436,-0.0069553763972923606,-0.40843257664644445,0.0089905854717234057,
0.23921700000000001,-9.848847864687519,0.10469170941788701,-0.088388303637778692,-9.3492285839386327,0.112531689320718,0.14471069430098368,-0.0072336567604997497,-0.40777644115708905,0.0086816472301321727,
0.24065700000000001,-9.848847864687519,0.10469067788001263,-0.088790128901371529,-9.32358457070257,0.12601437912280258,0.13818563972951242,-0.0082290057033623243,-0.40613895571220598,0.0086112220425599816,
0.24150199999999999,-9.8059292329791248,0.11976815512680261,-0.099016765954469232,-9.32358457070257,0.12601341742425254,0.13781101967632883,-0.0082289838629354111,-0.40613885084668733,0.0086112217733565147,
0.24207100000000001,-9.8059292329791248,0.11976712358892823,-0.099418591218062069,-9.3030464696831743,0.13327834506957517,0.13410786036259129,-0.0084226547697666618,-0.40470042058170358,0.0083458633438120728,
0.243501,-9.8059292329791248,0.11976609205105385,-0.099820416481654906,-9.3033427697941793,0.13370539732831124,0.12849713947081609,-0.008544301886347529,-0.40476894686069653,0.0084647839382693164,
0.24493200000000001,-9.8059292329791248,0.11976506051317946,-0.10022224174524774,-9.3209947322150892,0.13250873672685895,0.12512896578721361,-0.0084748925177067086,-0.40578308670897922,0.008825745494578742,
0.24543300000000001,-9.8209466246619037,0.12929165681058313,-0.11587094584195726,-9.3209947322150892,0.13250777502830891,0.12475434573403002,-0.0084748706772797954,-0.40578298184346057,0.0088257452253752752,
0.24640799999999999,-9.8209466246619037,0.12929062527270874,-0.11627277110555009,-9.3396786580141171,0.12426267754092971,0.12093386007267956,-0.0076756597276728426,-0.40723246381546246,0.0085386158265116589,
0.247835,-9.8209466246619037,0.12928959373483434,-0.11667459636914293,-9.3504751104854265,0.12620718226189473,0.1155943527445949,-0.0079168664207143555,-0.407949972670129,0.0083718472612941165,
0.24923200000000001,-9.8209466246619037,0.12928856219695994,-0.11707642163273577,-9.345981487293967,0.13548058850187386,0.11199934462467227,-0.0087702453359275699,-0.40770174185794339,0.0088461410363989742,
0.24937500000000001,-9.8737239847329619,0.11067324553883832,-0.1380532717680488,-9.345981487293967,0.13547962680332382,0.11162472457148868,-0.0087702234955006567,-0.40770163699242473,0.0088461407671955074,
0.25067299999999998,-9.8737239847329619,0.11067221400096394,-0.13847374723641073,-9.3292108068844879,0.12863730642598112,0.10729680125516573,-0.0077732300460109198,-0.40685395132359331,0.0090811788165014121,
0.25210100000000002,-9.8737239847329619,0.11067118246308956,-0.13889422270477267,-9.3113785781503715,0.12288878816495351,0.10240170848887313,-0.0081425670169531852,-0.40557475678915794,0.0089624713830284662,
0.25332399999999999,-9.9142355227616008,0.099772025414163509,-0.15641901823330365,-9.3113785781503715,0.12288782646640348,0.10200970092590478,-0.0081425461222976829,-0.40557464705644058,0.0089624711138249994,
0.25352400000000003,-9.9142355227616008,0.099770993876289127,-0.15683949370166558,-9.3169109865948823,0.10581705063954909,0.10155022051919398,-0.00667965928024759,-0.40553356807886337,0.0082626633553141583,
0.25495400000000001,-9.9142355227616008,0.099769962338414744,-0.15725996917002752,-9.3461175727673726,0.09599347265647229,0.096180422571565338,-0.0064469837853794367,-0.40770716212759001,0.0080610755589671373,
0.25642100000000001,-9.9142355227616008,0.099768930800540362,-0.15768044463838946,-9.3888122831023733,0.085919755297766062,0.094012091822963953,-0.0056481943393675736,-0.41006957224510904,0.0085265697263698977,
0.257276,-9.8638658299512088,0.092875862528452688,-0.17450774704879471,-9.3888122831023733,0.085918793599216031,0.093620084259995601,-0.0056481734447120721,-0.41006946251239168,0.0085265694571664309,
0.25787900000000002,-9.8638658299512088,0.092874830990578305,-0.17492822251715665,-9.4432142816384825,0.092138144733733676,0.085543852738541273,-0.0064776546132323939,-0.41328697042402723,0.0086133954312444961,
0.25927899999999998,-9.8638658299512088,0.092873799452703923,-0.17534869798551858,-9.5012567832953749,0.10213671469076388,0.079358746003039771,-0.0074393470147586516,-0.4166254333602652,0.0083429233236304214,
0.26069599999999998,-9.8638658299408934,0.092871736376955158,-0.17585034516921688,-9.544358767509685,0.099505690780328795,0.075640882662779477,-0.0073760418330778973,-0.41919435353865142,0.0087190401328291183,
0.261243,-10.015636639277849,0.066462782564974371,-0.19406236838122781,-9.5443587675000678,0.099503767383228733,0.075173199040908273,-0.0073759828373183194,-0.41919422262189104,0.0087190395944216608,
0.262125,-10.015636639267534,0.066460719489225606,-0.19456401556492611,-9.5618615263283395,0.09537565852249974,0.069235473716328544,-0.0072669899029820509,-0.41966075103336609,0.0082286063589360695,
0.26359199999999999,-10.015636639257218,0.066458656413476841,-0.19506566274862441,-9.5802955362483555,0.090930812629059235,0.069264126756187108,-0.0067412601541794667,-0.4203688886928687,0.008237770683651148,
0.26504,-10.015636639246903,0.066456593337728076,-0.19556730993232271,-9.6167203606048446,0.08403458872727608,0.069068622188993206,-0.006074747790318042,-0.42219503097517774,0.0080846650736921908,
0.26522000000000001,-10.132133205442441,0.051523418494449524,-0.21064776670366209,-9.6167203605952274,0.084032665330176018,0.068600938567122002,-0.0060746887945584641,-0.42219490005841737,0.0080846645352847333,
0.26643,-10.132133205432126,0.051521355418700752,-0.21114941388736039,-9.6634355080938104,0.083807187489956955,0.069084603063377117,-0.0063076818877459192,-0.4249013655145143,0.0080561502284108542,
0.26786300000000002,-10.132133205421811,0.051519292342951981,-0.21165106107105869,-9.7042954380641788,0.083968820001675951,0.071752475681523847,-0.0066459738411355973,-0.42699837009099834,0.0082941124515905455,
0.26909699999999998,-10.183774063446174,0.042143625088909425,-0.22489350422042126,-9.7042954380545616,0.083966896604575889,0.071284792059652644,-0.0066459148453760193,-0.42699823917423796,0.008294111913183088,
0.26929599999999998,-10.183774063435859,0.042141562013160654,-0.22539515140411956,-9.7202037916334714,0.084855690791187696,0.073787650974839664,-0.0066493040674731442,-0.42802105892481668,0.0083856215954390776,
0.27073000000000003,-10.183774063425544,0.042139498937411694,-0.22595836076816189,-9.7171574518347761,0.076647442061620497,0.078270630418836973,-0.006029599551271754,-0.4274671058930698,0.0083476228321513728,
0.27215800000000001,-10.183774063415228,0.042137435861662735,-0.22652157013220423,-9.7027651224405105,0.064525011086934134,0.079369190892438338,-0.0050744828928355502,-0.42615891924677002,0.0080355066388876125,
0.273036,-10.289168249342563,0.044105585515518152,-0.20465947988076055,-9.7027651224308933,0.064523087689833891,0.078844113101100594,-0.0050744270189585867,-0.42615877226394672,0.008035506100480155,
0.273586,-10.289168249332247,0.044103522439769192,-0.20522268924480289,-9.6930574089489046,0.065512788663227239,0.08213095385551801,-0.0052986419061392918,-0.4249576894475629,0.0085945051568548786,
0.27503100000000003,-10.289168249321932,0.044101459364020233,-0.20578589860884522,-9.7141268418310087,0.062013178752391145,0.083545368820877444,-0.0051774521548983874,-0.42618507712374198,0.0085383972858842153,
0.27646300000000001,-10.289168249311617,0.044099396288271274,-0.20634910797288755,-9.749589329850135,0.068795477894649945,0.084649517274221764,-0.0056541279170930934,-0.42849047953808961,0.0086960775811561718,
0.27696300000000001,-10.370026508294947,0.062050483650013727,-0.18770432528914699,-9.7495893298405178,0.068793554497549703,0.08412443948288402,-0.0056540720432161299,-0.42849033255526631,0.0086960770427487143,
0.27787099999999998,-10.370026508284631,0.062048420574264768,-0.18826753465318932,-9.7825081354829724,0.079456150806457057,0.088260792862516688,-0.0069203265217698037,-0.43035079047927854,0.0086040113648048009,
0.27930899999999997,-10.370026508274316,0.062046357498515808,-0.18883074401723166,-9.7847356879380101,0.070850961402260881,0.092508030055080487,-0.0064243855328099215,-0.43053369736746405,0.0083987665572273652,
0.280781,-10.370026508264001,0.062043262884892654,-0.18949191853320554,-9.7630545941389695,0.058156126330075449,0.098013819654464776,-0.0053830907259381378,-0.42900997403901048,0.0084811802099896225,
0.28088999999999997,-10.369712068990575,0.073406496410250668,-0.18123770370139364,-9.7630545941293523,0.058153241234425355,0.097397409351829486,-0.0053829976025698582,-0.4290098014899339,0.0084811794023786982,
0.28220899999999999,-10.36971206898026,0.073403401796627507,-0.18189887821736753,-9.7383785017809661,0.048015079724442258,0.10261754305689785,-0.00480832610406741,-0.42723477064150289,0.0082154616345332387,
0.28360800000000003,-10.369712068969944,0.073400307183004346,-0.18256005273334142,-9.710719495693521,0.037775620684952438,0.10609393053036593,-0.0041867472614563091,-0.42469232921480643,0.0088039361206509181,
0.28480899999999998,-10.30433465773153,0.07092627973478817,-0.24055079998595214,-9.7107194956839038,0.037772735589302345,0.10547752022773065,-0.0041866541380880294,-0.42469215666572985,0.0088039353130399938,
0.28504099999999999,-10.304334657721215,0.070923185121165008,-0.24121197450192602,-9.7259402155784294,0.034875812073477286,0.11084584900880413,-0.0041586277017980162,-0.42581802781403494,0.0085426302366475668,
0.28653699999999999,-10.3043346577109,0.070920090507541847,-0.24187314901789991,-9.7534622746468393,0.039085767764701337,0.11193905220813721,-0.0044427791096994067,-0.42747189583799688,0.0083415232255914708,
0.28796699999999997,-10.304334657700585,0.070916995893918686,-0.2425343235338738,-9.7967309016662121,0.042613533813376819,0.11568590255720637,-0.0045195794142553246,-0.43036818912770208,0.0089168162668132236,
0.28871200000000002,-10.254201103112413,0.069355808311010111,-0.19351059085806763,-9.7967309016565949,0.042610648717726726,0.11506949225457108,-0.004519486290887045,-0.4303680165786255,0.0089168154592022993,
0.28936499999999998,-10.254201103102098,0.06935271369738695,-0.19417176537404152,-9.8226858472329788,0.042986296908779302,0.11602336261839663,-0.0047319691568655274,-0.43239126094472469,0.0084340615160176467,
0.29077399999999998,-10.254201103091782,0.069348587545889406,-0.19491280155225124,-9.8147624757507366,0.037652626455552458,0.11523552946303948,-0.0040650024318561037,-0.43108829997014608,0.0088601463783004892,
0.292209,-10.254201103081467,0.069344461394391863,-0.19565383773046097,-9.7993694746499749,0.04098917778185248,0.11592047003526819,-0.004283111522744935,-0.43023418187418139,0.0085077653291965229,
0.29267599999999999,-10.357166877149503,0.055149473836447388,-0.19296413317442943,-9.7993694746403577,0.040985330987652356,0.1152296050308886,-0.0042829802318384144,-0.43023398848337235,0.0085077642523821301,
0.293653,-10.357166877139187,0.055145347684949844,-0.19370516935263915,-9.7787290554202198,0.056337165200518402,0.11511851119855265,-0.0053226949792389809,-0.42833700203523717,0.0079818948591504728,
0.29511100000000001,-10.357166877128872,0.0551412215334523,-0.19444620553084888,-9.7903537678584716,0.06772720892893877,0.11186441685522745,-0.0058464706476027296,-0.42899237816789648,0.0087936640822807791,
0.29653200000000002,-10.357166877118557,0.055137095381954757,-0.1951872417090586,-9.8179691096741806,0.087247640590849745,0.10960463391844495,-0.0072231213830993568,-0.43050287226017842,0.0083596195874022072,
0.29657299999999998,-10.29752015824373,0.052335394338835599,-0.19257593978925278,-9.8179691096645634,0.087243793796649621,0.10891376891406536,-0.0072229900921928361,-0.43050267886936938,0.0083596185105878143,
0.29796,-10.297520158233414,0.052331268187338055,-0.1933169759674625,-9.8505065673809504,0.10381895380068543,0.10815104277067238,-0.0081720188155952386,-0.43272752292263311,0.0086220100549189681,
0.29941000000000001,-10.297520158223099,0.052327142035840511,-0.19405801214567223,-9.8516718459882071,0.10747969408155979,0.10760981994895266,-0.0079604597487775638,-0.43284526852870508,0.0082981388986921416,
0.30056500000000003,-10.251577415807672,0.050546938560109153,-0.18443999902769617,-9.8516718459689727,0.10747488558880945,0.10683943209147005,-0.0079602905660084225,-0.43284505287703917,0.008298137552673758,
0.30083599999999999,-10.251577415787041,0.050541780870737039,-0.18526633307273985,-9.8248636669698772,0.11331771896082157,0.1054335640802255,-0.0080034251503897057,-0.43119485933281682,0.0076184346465022314,
0.302257,-10.251577415766411,0.050536623181364926,-0.18609266711778352,-9.7792906910503294,0.11507291651974046,0.10595625272048939,-0.0079605378960842608,-0.4282917087885999,0.007997574984939063,
0.30369600000000002,-10.25157741574578,0.050531465491992812,-0.1869190011628272,-9.7296106210536806,0.12030572024456221,0.10358351565029182,-0.0082219550886617181,-0.4248877693707836,0.0084045534317983735,
0.30451299999999998,-10.341908946584084,0.093480451878698023,-0.19446673177898294,-9.7296106210344462,0.12030091175181187,0.10281312779280921,-0.0082217859058925768,-0.42488755371911768,0.0084045520857799899,
0.30513200000000001,-10.341908946563453,0.093475294189325903,-0.19529306582402661,-9.7049869536159719,0.12738892590226811,0.099996030518530607,-0.0085290662583557067,-0.42308776535072345,0.008286560001529171,
0.30657000000000001,-10.341908946542823,0.093470136499953782,-0.19611939986907029,-9.7098587272391654,0.1293537141742708,0.097105030226414826,-0.0085158540233263406,-0.42380615826545298,0.0077853179645404821,
0.30800899999999998,-10.341908946522192,0.093464978810581661,-0.19694573391411396,-9.7167149117776184,0.13382136347418053,0.095981365434990251,-0.0088202292993747808,-0.42460244243216733,0.0083127926631999284,
0.30846000000000001,-10.22759819998193,0.10034156464615848,-0.20289607584756442,-9.716714911758384,0.13381655498143019,0.095210977577507641,-0.0088200601166056394,-0.42460222678050141,0.0083127913171815448,
0.30939699999999998,-10.227598199961299,0.10033640695678636,-0.20372240989260809,-9.7164416665414528,0.13444916375719954,0.090403339768852065,-0.0091742214235358867,-0.42520274328293745,0.0087473057921042471,
0.310832,-10.227598199940669,0.10033021772954005,-0.20463298963585383,-9.6861530715191932,0.12812861226153757,0.085813984151280373,-0.0086018261358459282,-0.42329256498339185,0.0080142798260146673,
0.31228400000000001,-10.227598199920038,0.10032402850229374,-0.20554356937909957,-9.6466913173389734,0.1272799470031345,0.081691824717806172,-0.0085594530427428161,-0.42104307253051598,0.008073039800904392,
0.31240299999999999,-10.139942069127288,0.10467516606554331,-0.2021792471300464,-9.6466913173197391,0.12727417681183431,0.080842894939741589,-0.0085592459147544944,-0.42104283489300287,0.0080730381856825417,
0.31371199999999999,-10.139942069106658,0.104668976838297,-0.20308982687329213,-9.608364434529884,0.12605934804688448,0.077250402936607288,-0.0081744988255562159,-0.41863705353345598,0.0081815648171090841,
0.31512000000000001,-10.139942069086027,0.10466278761105069,-0.20400040661653787,-9.5979878651637041,0.11712284482272577,0.072089341349259789,-0.0075752835812237631,-0.41785344297818749,0.0084343944369154895,
0.31634699999999999,-10.103396362500435,0.11886586257182104,-0.21042358954437454,-9.5979878651444697,0.11711707463142558,0.071240411571195206,-0.0075750764532354423,-0.41785320534067438,0.0084343928216936391,
0.31656800000000002,-10.103396362479804,0.11885967334457473,-0.21133416928762028,-9.6124428363296008,0.10984180987335936,0.069891705707897878,-0.0071078519441870932,-0.4192879961032478,0.0083613489231509318,
0.31805099999999997,-10.103396362459174,0.11885348411732842,-0.21224474903086601,-9.6293619708281746,0.10816921157470098,0.065729184377950098,-0.0066789234867907872,-0.42032399183112479,0.0080270037742436288,
0.31944800000000001,-10.103396362438543,0.11884729489008211,-0.21315532877411175,-9.6374029757746023,0.10424223970386534,0.061441495427166003,-0.0065220584608020708,-0.42162043212231365,0.0081034707874201028,
0.32026399999999999,-10.156184385507922,0.08737773485941569,-0.21818439772588613,-9.6374029757457507,0.10423454611546509,0.060516552995706047,-0.0065217710326115515,-0.42162017320653633,0.008103468633790795,
0.320855,-10.156184385476976,0.087369482556420602,-0.21917651022272425,-9.6113359217884611,0.093244939222366027,0.05555038217830377,-0.0065197280375039598,-0.41992854468826718,0.0080516012822365521,
0.322295,-10.15618438544603,0.087361230253425515,-0.22016862271956236,-9.5814964397483031,0.084763665518796466,0.050206623592242428,-0.0064111973496983853,-0.41819540912936332,0.0085728421693725895,
0.32372800000000002,-10.156184385415084,0.087352977950430427,-0.22116073521640048,-9.548367519312821,0.086238026665288944,0.044944532651828364,-0.0064658866793906866,-0.41597357724711065,0.008150799200540796,
0.32419900000000001,-10.19669505515397,0.067436102943509352,-0.22949063619955737,-9.5483675192839694,0.086230333076888696,0.044019590220368408,-0.0064655992512001673,-0.41597331833133333,0.0081507970469114881,
0.32516299999999998,-10.196695055123024,0.067427850640514264,-0.23048274869639548,-9.5360661479337221,0.089100252696191456,0.039776036848438341,-0.0065475920377769357,-0.41516239528367821,0.0083871725139412368,
0.32657999999999998,-10.196695055092079,0.067419598337519177,-0.2314748611932336,-9.5425866017902301,0.089232636103872387,0.034259512359244348,-0.0068906877930082419,-0.41608119245678554,0.0087209361157057023,
0.328011,-10.196695055061133,0.067411346034524089,-0.23246697369007172,-9.5532760985490093,0.10498883905980803,0.032075678708911544,-0.007809500642592445,-0.41673856569336964,0.0090236961889625118,
0.32815699999999998,-10.09896510043535,0.048632386634190207,-0.24205362091463287,-9.5532760985201577,0.10498114547140779,0.031150736277451588,-0.0078092132144019256,-0.41673830677759233,0.0090236940353332039,
0.32945799999999997,-10.098965100404405,0.048624134331195119,-0.24304573341147098,-9.5482320857470775,0.11466069257079212,0.027092691780125043,-0.0085301170697214736,-0.41689502289788133,0.0085568881299722382,
0.330872,-10.098965100373459,0.048614850490325462,-0.24406722410697193,-9.5189670473315378,0.11337618540334066,0.024017770810629602,-0.0083571976292870394,-0.41501348121393805,0.0081600553428599985,
0.33213799999999999,-9.9707925130083179,0.10380144963270051,-0.25183925078795794,-9.5189670473026862,0.1133675301163902,0.023065439204464432,-0.0083568694734889766,-0.41501321463124596,0.0081600529200272238,
0.33233000000000001,-9.970792512977372,0.10379216579183084,-0.25286074148345888,-9.4875612586523861,0.1125913199230632,0.020477645353058224,-0.008037296433072879,-0.41349127280432074,0.0080227308368964849,
0.33374500000000001,-9.9707925129464261,0.10378288195096118,-0.25388223217895983,-9.4659108928830999,0.10617044438744128,0.021166029341810784,-0.0075069080216084889,-0.41195774356789383,0.0079115502205624934,
0.33518399999999998,-9.9707925129154802,0.10377359811009151,-0.25490372287446078,-9.4788784338946641,0.10149871150961105,0.020080324961581523,-0.0068541968579597969,-0.41305321535143968,0.0074888934664624658,
0.33604200000000001,-10.015441448067717,0.13850321898280335,-0.27543280659850283,-9.4788784338658125,0.10149005622266059,0.019127993355416352,-0.0068538687021617341,-0.4130529487687476,0.0074888910436296903,
0.33659600000000001,-10.015441448036771,0.1384939351419337,-0.27645429729400378,-9.4978580923176743,0.10235319187558478,0.01881126491401534,-0.0070889281646485999,-0.41443662372148138,0.0079060287934344785,
0.33803699999999998,-10.015441448005825,0.13848465130106405,-0.27747578798950473,-9.5113575587297259,0.10072308203352033,0.018891575632899785,-0.0071474271839985079,-0.41582319160865366,0.0086520221514775255,
0.33947699999999997,-10.015441447974879,0.1384753674601944,-0.27849727868500568,-9.4924139477474139,0.093445699541161789,0.019146314349154366,-0.006676455307484736,-0.41462793956386401,0.008914832338790828,
0.33999800000000002,-10.007324389826348,0.097972795238199434,-0.26283786441861257,-9.4924139477185623,0.093437044254211329,0.018193982742989195,-0.0066761271516866732,-0.41462767298117192,0.0089148299159580533,
0.34091399999999999,-10.007324389785087,0.097962479859455581,-0.26393622531651362,-9.4634089658905314,0.083430374945729288,0.016753136151209529,-0.0059337900822982129,-0.41273339036243867,0.0086157398541105677,
0.342358,-10.007324389743825,0.097952164480711729,-0.26503458621441467,-9.4394046976942434,0.065572715045544613,0.016309488899326197,-0.0051834204175766722,-0.41135642517854398,0.0081325074776727492,
0.34376400000000001,-10.007324389702564,0.097941849101967876,-0.26613294711231572,-9.4376557028528953,0.063207573222804653,0.0166017228988358,-0.0052239808976983935,-0.41128002035280381,0.0083532269583254659,
0.343918,-10.08246841522749,0.073260794876129937,-0.25252046779060827,-9.4376557028144266,0.063197956237304342,0.015577725516721458,-0.005223614422662037,-0.41127973370864718,0.0083532242662887005,
0.34522900000000001,-10.082468415186229,0.073250479497386084,-0.25361882868850932,-9.4493927346975326,0.062811121268036701,0.017850956687228553,-0.0051234430669450061,-0.41239142113376326,0.0082932630336294087,
0.34664499999999998,-10.082468415144968,0.073240164118642231,-0.25471718958641038,-9.4550258030347933,0.054963995076303437,0.018142068273483122,-0.0046190578958447796,-0.41252444327941146,0.0083189427301032341,
0.34791,-9.9972630033561583,0.057571486837506028,-0.25283141277983501,-9.4550258029963246,0.05495437809080312,0.01711807089136878,-0.0046186914208084231,-0.41252415663525482,0.0083189400380664687,
0.34808,-9.997263003314897,0.057561171458762168,-0.25392977367773606,-9.4590939393530729,0.055625266439972662,0.019578178387617596,-0.0046729509315984316,-0.41304096443127969,0.0080485739382957742,
0.34949799999999998,-9.9972630032736358,0.057550856080018309,-0.25502813457563711,-9.4452674565368966,0.045084627347490268,0.021002656882877207,-0.004164629552638929,-0.41193706034865363,0.0084553441412539825,
0.35093800000000003,-9.9972630032220593,0.05753847762552549,-0.25614446486331016,-9.4307305825280885,0.034336477043504322,0.021444701488806169,-0.0032241086026172957,-0.41126130696588137,0.0086049054115555426,
0.35180099999999997,-10.026259380750238,0.036277200469175833,-0.24185312266977574,-9.4307305824800043,0.03432493666090377,0.020403951317950086,-0.0032236586040140015,-0.41126101563177814,0.0086049021811113197,
0.35237200000000002,-10.026259380698662,0.036264822014683014,-0.24296945295744882,-9.4217345799673478,0.038837177874079906,0.022096864324914388,-0.0038618002865902011,-0.41053172098853907,0.0092219612340550868,
0.35380899999999998,-10.026259380647085,0.036252443560190195,-0.2440857832451219,-9.4426804471226138,0.044293890158955795,0.021936626820092616,-0.0041853404182218114,-0.41207907744721145,0.0089738339116779819,
0.35522399999999998,-10.026259380595508,0.036240065105697376,-0.24520211353279497,-9.462692536018201,0.052266645061026497,0.020750891059564888,-0.0047696620950337465,-0.41312676060630982,0.0083613934173221924,
0.355744,-10.004494073908635,0.057962926839686214,-0.23264883712959913,-9.4626925359701168,0.052255104678425944,0.019710140888708805,-0.0047692120964304523,-0.41312646927220659,0.0083613901868779695,
0.35666500000000001,-10.004494073857058,0.057950548385193396,-0.23376516741727221,-9.4835732517136471,0.060901773538711658,0.021547044114974722,-0.0051137463737605925,-0.41487516139100694,0.0086123391920466391,
0.35809800000000003,-10.004494073805482,0.057938169930700577,-0.23488149770494529,-9.4841533050029678,0.063785649709499764,0.021330906573900105,-0.005192464703097437,-0.414729885910812,0.0087349858053726425,
0.35956100000000002,-10.004494073753905,0.057925791476207758,-0.23599782799261837,-9.4689038487942643,0.069049805724907237,0.020992195891525348,-0.005698291738928221,-0.41369959375684423,0.0085154739269098587,
0.35964600000000002,-9.9878186254067742,0.071656978437917823,-0.24054129316213071,-9.4689038487461801,0.069038265342306684,0.019951445720669266,-0.0056978417403249267,-0.413699302422741,0.0085154706964656358,
0.36096299999999998,-9.9878186253551977,0.071643568445550615,-0.24167433436336902,-9.453909717842496,0.074024761282035376,0.019010175012722685,-0.006078845604246522,-0.41289206580311127,0.0082536004231119602,
0.362396,-9.9878186253036212,0.071630158453183407,-0.24280737556460733,-9.4404907824448774,0.085463398118689693,0.017166188434971346,-0.0066943001744736042,-0.41172815541272706,0.0085012820859972395,
0.36358600000000002,-9.9917264045962639,0.061883615983689959,-0.24132925872092875,-9.4404907823967932,0.085450896037539109,0.016109858747604573,-0.0066938088058914836,-0.41172785971752768,0.008501278586349548,
0.36382500000000001,-9.9917264045446874,0.061870205991322758,-0.24246229992216706,-9.4419499389802546,0.099762097553893467,0.013168021182200647,-0.0076509758104987731,-0.41184633572564899,0.0085526964172552167,
0.36525999999999997,-9.9917264044931109,0.061856795998955556,-0.24359534112340536,-9.4581078843501967,0.10144901715367019,0.0094743965678708245,-0.007693693929818681,-0.41245387714700948,0.0081964023534051075,
0.36667300000000003,-9.9917264044415344,0.061843386006588355,-0.24472838232464367,-9.4864508088613864,0.099772432709682585,0.0038469187749579558,-0.0077737060927125321,-0.41431071117583584,0.0082443459296001019,
0.36751499999999998,-9.9947255188363933,0.102291973460895,-0.24294480007086561,-9.4864508088133022,0.099759930628532001,0.0027905890875911821,-0.0077732147241304115,-0.41431041548063646,0.0082443424299524105,
0.36811300000000002,-9.9947255187848167,0.10227856346852779,-0.24407784127210391,-9.5154179200885594,0.10100312607890483,-0.0022403668797560889,-0.0076126971142692597,-0.41586487868962907,0.0082223709809947105,
0.36957000000000001,-9.9947255187332402,0.10226515347616058,-0.24521088247334222,-9.5484337234126766,0.10050382363117372,-0.0092212981537880198,-0.0074478913406765867,-0.41771149207586167,0.0082718007342447858,
0.37100899999999998,-9.9947255186816637,0.10224968040804461,-0.24640705379249367,-9.576009879626378,0.10951789535619717,-0.015397523228946341,-0.0080540811708389969,-0.41935280365069461,0.0083581920752336183,
0.37144100000000002,-10.014268573610746,0.127857653090724,-0.26688783470657984,-9.5760098795782937,0.10950346987794653,-0.016512708867575721,-0.0080535085688377556,-0.41935249148024301,0.0083581880371789933,
0.37240400000000001,-10.014268573559169,0.12784218002260803,-0.26808400602573129,-9.5952265785449598,0.11160568055920533,-0.022063315489637449,-0.0082919436940241675,-0.42030709646208431,0.0085329268788861511,
0.37387900000000002,-10.014268573507593,0.12782670695449205,-0.26928017734488274,-9.6060469590579061,0.10841920534760534,-0.025507129262056196,-0.0078177052737653692,-0.42049389338263926,0.008559546396403531,
0.37529200000000001,-10.014268573456016,0.12781123388637608,-0.27047634866403419,-9.6285513908611726,0.10543600271474494,-0.027226544606622025,-0.0078261392147122594,-0.42170965066124744,0.0082604777054860433,
0.37542999999999999,-10.123121144794547,0.13615511329812127,-0.30281194059277972,-9.6285513908130884,0.1054215772364943,-0.028341730245251405,-0.0078255666127110182,-0.42170933849079584,0.0082604736674314182,
0.37675199999999998,-10.123121144742971,0.1361396402300053,-0.30400811191193117,-9.661235136516602,0.092550812938839933,-0.0294941238745354,-0.0068554700817671675,-0.42363977531945413,0.00816850337877662,
0.37817499999999998,-10.123121144691394,0.13612416716188933,-0.30520428323108262,-9.6869417853179485,0.087732444891972142,-0.032181269081652641,-0.0064783894049072425,-0.42491641151146803,0.0085311516865210317,
0.37932700000000003,-10.206385726264868,0.12820272868838056,-0.33196122485615276,-9.6869417852698643,0.087718019413721496,-0.033296454720282025,-0.0064778168029060003,-0.42491609934101643,0.0085311476484664066,
0.37960500000000003,-10.206385726213291,0.12818725562026459,-0.33315739617530421,-9.7067711418643174,0.096457135336259589,-0.036216682543657626,-0.0067872135994517906,-0.42630837526432724,0.0085120454538439444,
0.381054,-10.206385726141084,0.12816868793852546,-0.33443474952517077,-9.7145475313858256,0.10271733235925515,-0.040385302359477265,-0.0070206364593203849,-0.42652048436569673,0.0086856715013296903,
0.38248599999999999,-10.206385726068877,0.12815012025678632,-0.33571210287503733,-9.7179678516578587,0.10584069616548249,-0.044105905366743428,-0.0073668540756476253,-0.42628946498551928,0.0086909158775499012,
0.38326100000000002,-10.278103110423659,0.12314965469405309,-0.33519668481188125,-9.7179678515905401,0.10582338559158175,-0.045296776681261162,-0.0073661589382519104,-0.42628913162791049,0.008690911031883828,
0.38387100000000002,-10.278103110351452,0.12313108701231396,-0.33647403816174781,-9.7296041467099581,0.10386412171251828,-0.046867624928369378,-0.0071900343191399606,-0.42651942373640583,0.0086101663189747414,
0.385299,-10.278103110279245,0.12311251933057482,-0.33775139151161437,-9.7597267259510225,0.098731044229089168,-0.047927262313987189,-0.0067486757747452619,-0.4285047497888026,0.0085462957096981776,
0.38673800000000003,-10.278103110207038,0.12309395164883569,-0.33902874486148094,-9.7975305001417929,0.098166018654506235,-0.049562528478023324,-0.0067683521957681743,-0.43038737090529749,0.0085621578789903917,
0.387179,-10.286887518941313,0.12786047557115227,-0.35017712020419972,-9.7975305000744743,0.098148708080605496,-0.050753399792541058,-0.0067676570583724595,-0.4303870375476887,0.0085621530333243184,
0.38817800000000002,-10.286887518869106,0.12784190788941313,-0.35145447355406628,-9.8388384219985081,0.1071898326448231,-0.049770853451691618,-0.0074253088917094331,-0.43305430792253435,0.0084569116224106552,
0.38959700000000003,-10.286887518796899,0.127823340207674,-0.35273182690393284,-9.8538668026363485,0.11610331069488598,-0.048335723825818508,-0.0081281267188505497,-0.43382242373292224,0.0083527133050727027,
0.39104299999999997,-10.286887518724692,0.12780167791231153,-0.3541024312776449,-9.8445575969823906,0.12530522152379656,-0.045593213610665886,-0.0088289781685867673,-0.43293921690723869,0.0083310576134481337,
0.39112999999999998,-10.293637786545935,0.1352449654553326,-0.36293736072960803,-9.844557596915072,0.12528502585424556,-0.046871022474107467,-0.0088281611078278501,-0.43293885921363645,0.0083310519601716582,
0.39247100000000001,-10.293637786473727,0.13522330315997014,-0.36430796510332009,-9.8232524005475099,0.11864409480625372,-0.042616883145279304,-0.0084943458934319763,-0.4314678083443208,0.0082287925861976551,
0.39391100000000001,-10.29363778640152,0.13520164086460768,-0.36567856947703214,-9.7970736953100648,0.10628542244107814,-0.038210951950538738,-0.007567079040411896,-0.42888843624228967,0.0084209372937613155,
0.39504899999999998,-10.405744999061778,0.13991965166357059,-0.36580908741135787,-9.7970736952427462,0.10626522677152712,-0.039488760813980318,-0.0075662619796529797,-0.42888807854868743,0.0084209316404848401,
0.395339,-10.405744998989571,0.13989798936820813,-0.36717969178506993,-9.808310820835338,0.098445472205936746,-0.03601342575946466,-0.0073089742115142976,-0.42969799700804706,0.0082771561257991393,
0.39679700000000001,-10.405744998917363,0.13987632707284567,-0.36855029615878199,-9.840095091694721,0.099232483943247657,-0.033558086438934959,-0.0073652455834162245,-0.43132522057225925,0.0082128590696117169,
0.398206,-10.405744998845156,0.13985466477748321,-0.36992090053249405,-9.8816992302632087,0.098939535172325052,-0.032926793204428186,-0.007427724483012421,-0.43400266905893869,0.0089008529362467823,
0.39895000000000003,-10.364309859606676,0.10687335067439077,-0.33664179093139324,-9.8816992301958901,0.09891933950277404,-0.034204602067869766,-0.0074269074222535047,-0.43400231136533646,0.0089008472829703068,
0.39964100000000002,-10.364309859534469,0.1068516883790283,-0.3380123953051053,-9.9111887900200131,0.10136098468637664,-0.030546452437483346,-0.007861949128312104,-0.43564868177546134,0.0086607153374640977,
0.40107399999999999,-10.364309859441631,0.10682693147004285,-0.33946057132697205,-9.9125777664411636,0.094989259527761216,-0.027228281673365919,-0.007544969909983784,-0.4357967532077574,0.0080980345948251237,
0.40252700000000002,-10.364309859348793,0.10680217456105741,-0.3409087473488388,-9.8953159594069451,0.078025963397785711,-0.022454187981288787,-0.0064753950878756322,-0.43444231811884926,0.0083311584141675318,
0.40288600000000002,-10.332470034126187,0.11490871775574461,-0.31229136939243657,-9.8953159593203921,0.078002882632584772,-0.023804316575693568,-0.0064744553086359714,-0.43444194018030191,0.0083311519532796082,
0.40395500000000001,-10.332470034033349,0.11488396084675917,-0.31373954541430332,-9.8739400951315996,0.063767600907460906,-0.015740603315910026,-0.0053001692498423833,-0.43285949035518134,0.0083251780855635761,
0.40540300000000001,-10.332470033940512,0.11485920393777373,-0.31518772143617008,-9.8652603478681922,0.061474774290199909,-0.01089019794832213,-0.0054208509227130688,-0.43205576444504157,0.008097349247519035,
0.406831,-10.405518347354034,0.12001449541080042,-0.30169514056579472,-9.8652603477816392,0.061451693524998977,-0.012240326542726911,-0.005419911143473408,-0.43205538650649422,0.0080973427866311114,
0.40683599999999998,-10.405518347261197,0.11998973850181498,-0.30314331658766147,-9.8732868490101584,0.060866069611844285,-0.0077579239924674276,-0.0052029317918525775,-0.43287103578859182,0.0078035820441121184,
0.408271,-10.405518347168359,0.11996498159282953,-0.30459149260952822,-9.8772165001474512,0.063096317387336703,-0.0047083632717946364,-0.0054649445638766184,-0.43307108496397667,0.0082324176757818876,
0.40966799999999998,-10.405518347075521,0.11994022468384409,-0.30603966863139498,-9.8640769638730337,0.059489573399042574,-0.0021359200443406496,-0.0054089119716669437,-0.43234904113493139,0.0085768577714515626,
0.410802,-10.415334544114289,0.096780941829922917,-0.28110508403161449,-9.8640769637768635,0.059462645839641344,-0.0035914507998301018,-0.0054078090560163517,-0.43234863369126186,0.0085768502337492461,
0.41111900000000001,-10.415334544011136,0.096752058769439736,-0.28266631660451524,-9.8433826199113081,0.052962288579563491,-0.00027623743050936896,-0.0047797571662525021,-0.43102211055931011,0.0083663708567223143,
0.41254000000000002,-10.415334543907983,0.096723175708956555,-0.28422754917741599,-9.8273714201857771,0.04775020841539044,0.0032555380535922995,-0.004278488892179467,-0.42996975128346177,0.0085046257011729565,
0.41394900000000001,-10.41533454380483,0.096694292648473373,-0.28578878175031674,-9.8264195085011234,0.039341973425465533,0.0070055863616916092,-0.0037710041880139487,-0.42988662336640165,0.0083997385208407216,
0.41472999999999999,-10.422856290863441,0.046911256108936171,-0.26409272693009112,-9.8264195084049533,0.039315045866064303,0.005550055606202157,-0.0037699012723633567,-0.42988621592273213,0.0083997309831384051,
0.41538700000000001,-10.422856290760288,0.046882373048452997,-0.26565395950299187,-9.8402994958935253,0.043040767232283818,0.0067059891722634109,-0.0038744136669210741,-0.43094748735427219,0.0081349530862225659,
0.416821,-10.422856290657135,0.046853489987969822,-0.26721519207589262,-9.8613810017261283,0.04845985197391682,0.0091102197918588885,-0.0044505183714861774,-0.43210756050201016,0.0083613362290476285,
0.41828399999999999,-10.422856290553982,0.046824606927486648,-0.26877642464879337,-9.8757670189792766,0.047653260010015241,0.0095103463035352311,-0.0045895191162621824,-0.43329674079639524,0.008111351197716353,
0.41866399999999998,-10.372894678204375,0.01537963770483234,-0.26313997567821995,-9.8757670188831064,0.047626332450614012,0.0080548155480457788,-0.0045884162006115904,-0.43329633335272572,0.0081113436600140365,
0.419678,-10.372894678101222,0.015350754644349164,-0.2647012082511207,-9.8637883808907425,0.049663921554757053,0.008331418775967183,-0.0046980475971041651,-0.43235142301878776,0.0077938212585576851,
0.42111599999999999,-10.372894677977436,0.015317745432368444,-0.26636807030235976,-9.8455484270869889,0.05725737105262059,0.0081765486178754804,-0.0050156375068831456,-0.43116049845048826,0.0079769175862499479,
0.42254399999999998,-10.372894677853651,0.015284736220387724,-0.26803493235359882,-9.8262813210307076,0.055087226090745324,0.0077102253589374781,-0.004869769181352253,-0.42946859659844988,0.0079951507853928735,
0.42258000000000001,-10.390844547342789,0.047298204702144742,-0.2595619629576057,-9.826281320915303,0.055056451737143963,0.006156216671923666,-0.0048685027526561044,-0.42946816158750095,0.007995142170875642,
0.42402000000000001,-10.390844547219004,0.047265195490164023,-0.26122882500884476,-9.8300351771334249,0.059052788041034962,0.0049232333456376946,-0.0049678508438207392,-0.42990567033414223,0.0078870819029162285,
0.42543599999999998,-10.390844547095218,0.047232186278183305,-0.26289568706008382,-9.847603809502786,0.067718183484820338,0.0022284340498509776,-0.005592084012129934,-0.43087132505678549,0.0081616956521397208,
0.426512,-10.404623025794695,0.067532459529032807,-0.25524012184881706,-9.8476038093873814,0.067687409131218984,0.00067442536283716524,-0.0055908175834337853,-0.43087089004583656,0.0081616870376224893,
0.42685000000000001,-10.40462302567091,0.067499450317052082,-0.25690698390005612,-9.8708147526328229,0.071823711796772327,-0.0014255158251494271,-0.0061744634715476775,-0.432362531087577,0.008810281110581587,
0.428282,-10.404623025547124,0.067466441105071356,-0.25857384595129518,-9.8756984883256234,0.074711126774087797,-0.0047636266714358019,-0.0062454001180051802,-0.43303795020962227,0.0088770141973015942,
0.429732,-10.404623025402708,0.067428274203718705,-0.26030734534922034,-9.8505408821281399,0.074129939393348526,-0.0088374286230288035,-0.0059219389216958705,-0.43138493585253651,0.0084575681233844922,
0.43043700000000001,-10.422424761317281,0.078550118767182542,-0.26988567443742045,-9.8505408819935028,0.074094356546997003,-0.010453563036375362,-0.0059204647852155942,-0.43138448345019925,0.0084575581628488772,
0.43114000000000002,-10.422424761172865,0.07851195186582989,-0.27161917383534562,-9.8196082037954664,0.077383095080254871,-0.013111533979957801,-0.0056906313973919794,-0.4296012264694748,0.0079657952845665781,
0.43257400000000001,-10.422424761028449,0.078473784964477239,-0.27335267323327078,-9.7850489229282704,0.076551102384933734,-0.015016947830962012,-0.0058933747435041019,-0.42743300299194265,0.0083146964972721938,
0.43401499999999998,-10.422424760884033,0.078435618063124588,-0.27508617263119595,-9.7566967635935899,0.078347829116788129,-0.020234450421330263,-0.0055123736584723878,-0.42566713529281969,0.0086544302770552601,
0.43436399999999997,-10.329744445802097,0.073211274213693014,-0.28231301062737285,-9.7566967634589528,0.078312246270436606,-0.02185058483467682,-0.0055108995219921115,-0.42566668289048243,0.008654420316519645,
0.435446,-10.329744445657681,0.073173107312340363,-0.28404651002529802,-9.7538245949714497,0.089349630269066393,-0.024914778938661591,-0.0062271798932637566,-0.42568973621390743,0.0083197228354945103,
0.43686199999999997,-10.329744445513265,0.073134940410987712,-0.28578000942322318,-9.7630592446324318,0.098907815743443039,-0.029018732402322174,-0.006791440384538769,-0.42677293057265148,0.0083200049603261907,
0.43830400000000003,-10.25856976177144,0.069853589324063228,-0.28254165620125471,-9.7630592444977946,0.098872232897091517,-0.030634866815668731,-0.0067899662480584927,-0.42677247817031422,0.0083199949997905757,
0.438309,-10.258569761627024,0.069815422422710577,-0.28427515559917987,-9.756376290431545,0.094491735056378187,-0.035474696190032934,-0.006722783368463681,-0.42662308564311896,0.0083382350941196177,
0.43974400000000002,-10.258569761482608,0.069777255521357925,-0.28600865499710504,-9.7243452939238679,0.093360877431840961,-0.037699598150267126,-0.0067701824371179152,-0.42488121665673945,0.0086610475254011287,
0.44118600000000002,-10.258569761327877,0.06973496246850755,-0.2878485059498806,-9.6783183224360663,0.087639511765875117,-0.041007660264390476,-0.0064521798732857559,-0.42207165671469654,0.0081685068399034721,
0.44222400000000001,-10.277483824115519,0.10901312753610944,-0.31180163182240744,-9.6783183222918119,0.087600082125323303,-0.042722945798246426,-0.0064505422603771713,-0.42207117655705961,0.0081684958025534642,
0.44261600000000001,-10.277483823960788,0.10897083448325906,-0.313641482775183,-9.6400251039456712,0.084736624378341105,-0.046048078820445822,-0.0060004477506607565,-0.41985889485780897,0.0084596670480097044,
0.44403799999999999,-10.277483823806056,0.10892854143040868,-0.31548133372795856,-9.6189623094994428,0.088222273091947523,-0.051769492076649395,-0.0064472090208558203,-0.41845975425304016,0.0083911066666279358,
0.44546799999999998,-10.277483823651325,0.10888624837755831,-0.31732118468073411,-9.6203011217242125,0.092338256120580373,-0.057408499548967415,-0.0066025314278871702,-0.41903377951260845,0.0086177075290946367,
0.44617200000000001,-10.143766892157739,0.10214416794632952,-0.33659785234057016,-9.6203011215799581,0.092298826480028559,-0.059123785082823364,-0.0066008938149785855,-0.41903329935497152,0.0086176964917446287,
0.44690400000000002,-10.143766892003008,0.10210187489347915,-0.33843770329334572,-9.6252667156233027,0.10298697553148456,-0.061630753490177076,-0.0071978793407515892,-0.41941516626319703,0.0090047784365921753,
0.44834400000000002,-10.143766891848276,0.10205958184062877,-0.34027755424612127,-9.6260547235991964,0.10604654509566561,-0.063170619196426331,-0.00764841754811371,-0.42029046458837055,0.0083513720105751043,
0.44978499999999999,-10.143766891693545,0.1020172887877784,-0.34211740519889683,-9.5966737594692848,0.10463161820670296,-0.065071398587583845,-0.0073301939017343656,-0.41867498661737607,0.0081241903437009547,
0.45011099999999998,-10.041149830661658,0.097799439781784583,-0.3368606856767053,-9.5966737593250304,0.10459218856615114,-0.066786684121439802,-0.007328556288825781,-0.41867450645973914,0.0081241793063509468,
0.45119999999999999,-10.041149830486296,0.097750957501688079,-0.33878522588896887,-9.5554606619759586,0.11199297748488182,-0.066204026840666272,-0.0076663364099848986,-0.41654758125060637,0.0080728731191003159,
0.45264500000000002,-10.041149830310934,0.097702475221591575,-0.34070976610123244,-9.5041788043369273,0.11490508234565444,-0.067912758955925523,-0.0078920342473578434,-0.4134144712760362,0.008062103002521432,
0.45403399999999999,-10.047690427768433,0.12672281449955691,-0.35023341663008223,-9.5041788041734385,0.11485988251380261,-0.069706999940739978,-0.0078901476246897879,-0.41341396901595023,0.0080620903499495754,
0.45407500000000001,-10.047690427593071,0.12667433221946039,-0.3521579568423458,-9.4601658951286698,0.11471698903379977,-0.07056795338330403,-0.007564183187630239,-0.41080191110295855,0.0082943349852208307,
0.45548699999999998,-10.047690427417709,0.12662584993936388,-0.35408249705460937,-9.4417986034444716,0.1267445180259745,-0.070157191441231156,-0.0086162889658139893,-0.40986024035052065,0.0081207643715575147,
0.45691999999999999,-10.047690427242348,0.12657736765926736,-0.35600703726687294,-9.4435376094563193,0.13378495890641032,-0.071449867271879033,-0.0085512744854075121,-0.4105229375110771,0.0083536082228084316,
0.457986,-9.9278239074991763,0.13445616462313123,-0.36310002040729605,-9.4435376092928305,0.13373975907455848,-0.073244108256693488,-0.0085493878627394566,-0.41052243525099114,0.0083535955702365751,
0.458366,-9.9278239073238144,0.13440768234303471,-0.36502456061955962,-9.4421671264586386,0.13473456616911295,-0.074750972534431595,-0.0085760682969283925,-0.4110179956195969,0.008295224495807255,
0.45979999999999999,-9.9278239071484524,0.13435920006293819,-0.36694910083182319,-9.4166046525341898,0.13843542529381428,-0.072871241810198467,-0.0090210084918330019,-0.40970619094348082,0.0084662078796098883,
0.46121600000000001,-9.9278239069524599,0.13430556009346939,-0.36891789401889841,-9.3764490493424528,0.12829383943418785,-0.072706125676940625,-0.0079986272462315728,-0.40750057028801601,0.0081822382536665683,
0.46192499999999997,-9.8358644128960631,0.13933889535637312,-0.35377897921318796,-9.3764490491597297,0.12824383110958551,-0.074541623529551904,-0.0079965317806444391,-0.40750005647825693,0.0081822242550763282,
0.46265200000000001,-9.8358644127000705,0.13928525538690431,-0.35574777240026317,-9.3361016152798513,0.12576228625636793,-0.074068330357410242,-0.0078604486319989973,-0.40507153086284514,0.0080524400956831516,
0.46410000000000001,-9.8358644125040779,0.13923161541743551,-0.35771656558733839,-9.315428699786036,0.12302201252418361,-0.072195579123411943,-0.0077825498419820732,-0.4038426617277906,0.0087205607880180731,
0.46553099999999997,-9.8358644123080854,0.1391779754479667,-0.3596853587744136,-9.3182065145583621,0.11726848617941958,-0.071805840495794096,-0.006945435934991172,-0.40429798563428027,0.0090632880676948385,
0.46582899999999999,-9.7771137664873198,0.14768331155063477,-0.3460348071554587,-9.318206514375639,0.11721847785481725,-0.073641338348405375,-0.0069433404694040383,-0.40429747182452119,0.0090632740691045984,
0.46694400000000003,-9.7771137662913272,0.14762967158116597,-0.34800360034253391,-9.3392574839981499,0.11927479417203482,-0.073533604245576645,-0.0076173978705811269,-0.40615151032196034,0.0088940579567713032,
0.468389,-9.7771137660953347,0.14757603161169716,-0.34997239352960913,-9.3538789829396887,0.10840543971706744,-0.075603106737624132,-0.0069253617810354686,-0.40717324985738063,0.0085716831566617253,
0.46976699999999999,-9.6857630373096786,0.13893840778223462,-0.33786203009745919,-9.3538789827569655,0.1083554313924651,-0.07743860459023541,-0.006923266315448335,-0.40717273604762155,0.0085716691580714852,
0.46982600000000002,-9.685763037113686,0.13888476781276582,-0.3398308232845344,-9.3655970592652711,0.098687494144768434,-0.081158627534584443,-0.0061734581745433786,-0.40815219592283469,0.0089666871245848972,
0.47126200000000001,-9.6857630368970629,0.13882597015392525,-0.34184727352140681,-9.3708301324374066,0.10145402196739452,-0.084947846030225344,-0.0069290930365751985,-0.40822343110103504,0.0087790011061657965,
0.47267900000000002,-9.6857630366804397,0.13876717249508469,-0.34386372375827923,-9.3792706720720105,0.092212882623046055,-0.09257966234219131,-0.0061956042907317975,-0.4085796093685739,0.008433362998774575,
0.47370800000000002,-9.7582592549222635,0.13335711497228492,-0.3449593345353803,-9.3792706718700529,0.092158065805693731,-0.09445959066781455,-0.0061933001548498158,-0.40857908312077029,0.0084333476541659513,
0.47411300000000001,-9.7582592547056404,0.13329831731344435,-0.34697578477225272,-9.4051361022546196,0.087843507958159359,-0.10282188882079037,-0.0059508606324949111,-0.41023254143915711,0.0088132322217700319,
0.47554800000000003,-9.7582592544890172,0.13323951965460379,-0.34899223500912513,-9.4392322690498105,0.092140703410605873,-0.11119002581354681,-0.0064411883145907437,-0.41162832479112993,0.0088975982674767678,
0.47698499999999999,-9.758259254272394,0.13318072199576322,-0.35100868524599754,-9.5083298758112402,0.083916620930072405,-0.11895882767921984,-0.005756003722152043,-0.41594674030550099,0.0086715896795140981,
0.47765099999999999,-9.8050052217329231,0.13070192765935931,-0.37117617782001638,-9.5083298756092827,0.083861804112720081,-0.12083875600484308,-0.0057536995862700613,-0.41594621405769738,0.0086715743349054745,
0.478433,-9.8050052215162999,0.13064313000051875,-0.3731926280568888,-9.582852209304475,0.083194155809962866,-0.12767172383448347,-0.0060767812506445839,-0.42015656425324799,0.0079728418663389689,
0.47984399999999999,-9.8050052212996768,0.13058433234167818,-0.37520907829376121,-9.6603358681164107,0.083471540716792275,-0.13439331155101153,-0.0061621117614750684,-0.4249324118850098,0.0082465471162109678,
0.48130499999999998,-9.805005221062423,0.13051934545559113,-0.37728907126369648,-9.7042530525537991,0.08111324970531171,-0.14227892498694217,-0.0062718796697437823,-0.42752983163285829,0.0084102591846722512,
0.48156300000000002,-9.9154244305031298,0.13253232979740692,-0.39331414195870773,-9.7042530523326089,0.08105266269665902,-0.14421809394324803,-0.0062693254517398184,-0.42752928880127677,0.0084102422248417772,
0.48272100000000001,-9.9154244302658761,0.13246734291131987,-0.395394134928643,-9.7260562041984606,0.081683137813762963,-0.15122228006427468,-0.006410605398555958,-0.42776521641737031,0.0082561173216422531,
0.484157,-9.9154244300286223,0.13240235602523281,-0.39747412789857828,-9.7589035728050391,0.075769981154866092,-0.15912900463988944,-0.0064043841595353449,-0.42938098879722514,0.0078946845272878756,
0.48548799999999998,-10.142682177208899,0.13372457910733837,-0.4274290303954299,-9.7589035725838489,0.075709394146213402,-0.1610681735961953,-0.006401829941531381,-0.42938044596564362,0.0078946675674574016,
0.48559799999999997,-10.142682176971645,0.13365959222125132,-0.42950902336536517,-9.8113066987703874,0.086578097409004962,-0.16758655199514252,-0.007052831003874987,-0.43164084875107478,0.0078401342254038955,
0.48702299999999998,-10.142682176734391,0.13359460533516426,-0.43158901633530045,-9.8813202957733957,0.088758635092161933,-0.17236589508388417,-0.0071278029193682924,-0.43580505664593111,0.0081646019449273279,
0.48845899999999998,-10.142682176497138,0.13352961844907721,-0.43366900930523572,-9.9403536686882763,0.094462027982639404,-0.17643810154975567,-0.0076578785155446928,-0.43890219657187496,0.0078817180828768124,
0.48940899999999998,-10.25976082973548,0.11247153498701369,-0.46547851982941774,-9.9403536684670861,0.094401440973986714,-0.17837727050606153,-0.0076553242975407288,-0.43890165374029344,0.0078817011230463384,
0.48988199999999998,-10.259760829498227,0.11240654810092664,-0.46755851279935301,-9.9693848010846935,0.095599930004386519,-0.17794139294379568,-0.0080703407859115655,-0.44052416184406396,0.0074309177671977632,
0.49131399999999997,-10.259760829230027,0.11233537198759308,-0.46972319502877635,-9.9640874739883127,0.084400239414391343,-0.17952429990953261,-0.007047873064513625,-0.439654531392628,0.0074770708129900292,
0.49274699999999999,-10.259760828961827,0.11226419587425952,-0.47188787725819969,-9.9453355753319723,0.078739139272523587,-0.18114299685127713,-0.0066098466782672427,-0.43803395253642691,0.0074503261865110602,
0.49334,-10.349659899104429,0.126249320259432,-0.49769516187657953,-9.9453355750819306,0.07867278207257053,-0.1831611212585415,-0.0066070434505037922,-0.43803338760197419,0.0074503076114582137,
0.494172,-10.349659898836229,0.12617814414609846,-0.49985984410600287,-9.9373406502404737,0.074619343221603587,-0.18267412197100114,-0.0062416903131361353,-0.4361688027796739,0.0079703704652740095,
0.49561100000000002,-10.34965989856803,0.12610696803276492,-0.50202452633542627,-9.9739465393248814,0.075657308710693358,-0.184494296458073,-0.0062597978831514045,-0.4383519881129041,0.0081922683602838834,
0.49706699999999998,-10.34965989829983,0.12603579191943137,-0.50418920856484961,-10.027241158598189,0.083837027625630292,-0.18274297540758513,-0.0069516916229365421,-0.44113634000463608,0.0083495266576697862,
0.49727700000000002,-10.434845283096122,0.13497098035681751,-0.49590633477262797,-10.027241158348147,0.083770670425677235,-0.18476109981484951,-0.0069488883951730916,-0.44113577507018337,0.0083495080826169396,
0.498477,-10.434845282827922,0.13489980424348397,-0.49807101700205131,-10.0940648992043,0.084118190970463053,-0.17934770086207524,-0.007023762231457344,-0.4455944111633196,0.0087839329493088723,
0.49994899999999998,-10.434845282539092,0.13481934428928094,-0.5003465895529724,-10.122231332989267,0.071045818306651451,-0.17320957855105448,-0.0062030935186880281,-0.44704767547701357,0.0080435690762369581,
0.50121099999999996,-10.575434764673625,0.097420432520156253,-0.50381856314204831,-10.122231332719991,0.070970805819748115,-0.17533108555244842,-0.0061999159576281377,-0.44704708160234374,0.008043548078351859,
0.50140799999999996,-10.575434764384795,0.097339972565953226,-0.50609413569296935,-10.111072580474604,0.048596610748010069,-0.16688066626582282,-0.0046418368662251332,-0.44587240328566324,0.0083661367922007474,
0.50278,-10.575434764095965,0.097259512611750198,-0.50836970824389038,-10.08342538717695,0.032757609459534508,-0.16051545673879652,-0.0036419244673991666,-0.44409239782871246,0.0080558909084979431,
0.50419800000000004,-10.575434763807134,0.097179052657547171,-0.51064528079481142,-10.045799119083156,0.026440502633021438,-0.1557664067962157,-0.0033531028664095012,-0.44074143772757446,0.0082545198692302885,
0.50513200000000003,-10.683268608575991,0.035826111408901226,-0.51247872668452887,-10.04579911881388,0.026365490146118102,-0.15788791379760964,-0.0033499253053496103,-0.44074084385290463,0.0082544988713451894,
0.505637,-10.683268608287161,0.035745651454698199,-0.51475429923544991,-10.059283429617507,0.032296234604124258,-0.15429126110404159,-0.0039382007545723874,-0.44186954972069753,0.0083589682590027806,
0.50706600000000002,-10.683268607998331,0.035665191500495172,-0.51702987178637094,-10.083321262570186,0.048345904301272016,-0.15213606665509011,-0.0054391991764165043,-0.44286061895897721,0.0084532482729679816,
0.50853199999999998,-10.6832686077095,0.035584731546292145,-0.51930544433729198,-10.115195252415926,0.04682337012523894,-0.14982126174222318,-0.005070699402561077,-0.44553752676191027,0.0088497436842734593,
0.50906499999999999,-10.626265865923999,-0.0031785886458190957,-0.46680044326706771,-10.11519525214665,0.046748357638335604,-0.15194276874361712,-0.0050675218415011866,-0.44553693288724044,0.0088497226863883602,
0.50992999999999999,-10.626265865635169,-0.0032590486000221228,-0.4690760158179888,-10.103714867060422,0.041088209411299592,-0.14933003777857037,-0.0047185175181138263,-0.44442936961079793,0.0082238372968539298,
0.51136000000000004,-10.626265865305077,-0.0033487923950946221,-0.47146082822980862,-10.080604581758569,0.041946570250289514,-0.14668317547867102,-0.0050296802037588968,-0.44319747615269889,0.0080211762362241753,
0.51279699999999995,-10.626265864974986,-0.0034385361901671215,-0.47384564064162843,-10.038177083532462,0.03625187244559562,-0.14549155068777647,-0.0043540488536617768,-0.44001458005073285,0.0077324723598242179,
0.51301600000000003,-10.714018483260213,0.015230816454409862,-0.45684526075453558,-10.038177083224719,0.036168204671741998,-0.14771490156561992,-0.0043504968756088603,-0.44001395766572715,0.0077324489391058212,
0.51425600000000005,-10.714018482930122,0.015141072659337363,-0.45923007316635539,-10.009935236533918,0.051757879667291819,-0.14617448799332713,-0.0054259828173905001,-0.43796188981976458,0.0080646261187896362,
0.51564699999999997,-10.71401848260003,0.015051328864264864,-0.4616148855781752,-10.011228369631393,0.070725476167676035,-0.14330555743993112,-0.0067075979842551791,-0.43816950803826271,0.0084458790236150733,
0.51697300000000002,-10.781402565816924,0.056893521256342727,-0.44654915568198389,-10.01122836932365,0.070641808393822419,-0.14552890831777457,-0.0067040460062022626,-0.43816888565325701,0.0084458556028966757,
0.51708799999999999,-10.781402565486832,0.05680377746127023,-0.4489339680938037,-10.028337977369993,0.078114000451532994,-0.14443449551777232,-0.0069924085610177465,-0.4392460899865262,0.0086520007816345123,
0.51852900000000002,-10.781402565156741,0.056714033666197733,-0.45131878050562352,-10.035143212964835,0.083108962772609346,-0.14373854485558746,-0.0074224272698702187,-0.44044422481919954,0.0086055084755784217,
0.51996200000000004,-10.781402564826649,0.056624289871125236,-0.45370359291744333,-10.009030491931014,0.076265517311711342,-0.14566573066571287,-0.0067980766462804858,-0.43840649592247882,0.0089274786282278716,
0.52094799999999997,-10.653829143416038,0.08320175372235282,-0.44227404314804897,-10.009030491584802,0.076172232552357236,-0.14800208112318633,-0.0067941086406280281,-0.43840584190437704,0.0089274525154727086,
0.52138499999999999,-10.653829143044684,0.083101694548536276,-0.44478006126011049,-9.979246398262779,0.076457406475317208,-0.14960378250937309,-0.0063450702419372606,-0.43721719254294134,0.0086544974376355898,
0.52283599999999997,-10.653829142673329,0.083001635374719732,-0.44728607937217202,-9.939411317968835,0.091543653291237384,-0.15169928691110249,-0.0073556166353286288,-0.4341511929590639,0.0081677712343261478,
0.52427999999999997,-10.653829142301975,0.082901576200903188,-0.44979209748423354,-9.9166953356343654,0.093746268218877743,-0.15664949857043658,-0.0074083000298414189,-0.43328887971013041,0.0082695896917553344,
0.52488699999999999,-10.581222775028309,0.059244143426542092,-0.43326485292287392,-9.9166953352881535,0.093652983459523637,-0.15898584902791005,-0.0074043320241889612,-0.43328822569202863,0.0082695635790001713,
0.52572300000000005,-10.581222774656954,0.059144084252725548,-0.43577087103493545,-9.8960685139808575,0.096494572016552191,-0.16210080068626967,-0.0073997756491627851,-0.43145148026711777,0.008312192019614726,
0.52713500000000002,-10.5812227742856,0.059044025078909004,-0.43827688914699697,-9.8995202321354459,0.10017828635003433,-0.16462668340143782,-0.0078230817093102745,-0.43244338283291556,0.0084978258574301014,
0.52859100000000003,-10.581222773914245,0.05894396590509246,-0.4407829072590585,-9.8847171122830382,0.090226641148546519,-0.16673267199713648,-0.0069600250005287358,-0.43186426647120235,0.0086936629181213372,
0.52881500000000004,-10.525593491824832,0.074034907081960644,-0.42570389367009004,-9.8847171119368262,0.090133356389192412,-0.16906902245460995,-0.0069560569948762781,-0.43186361245310056,0.0086936368053661742,
0.53002499999999997,-10.525593491412216,0.07392350099152567,-0.42833823509372659,-9.8469524586673707,0.087129107884421048,-0.17511129082499755,-0.0070250959676873082,-0.42968388285661918,0.0082888846464900696,
0.53145299999999995,-10.525593490999601,0.073812094901090697,-0.43097257651736315,-9.7950565846331283,0.086903441313119514,-0.17967687947288788,-0.0073487972701095439,-0.42687586577004244,0.0086360547593627799,
0.53275300000000003,-10.475111638084899,0.083434277332838522,-0.44579825562299547,-9.7950565842484494,0.086799577869714886,-0.18213286522998662,-0.0073443713803923181,-0.42687517826134064,0.0086360256853673847,
0.53286199999999995,-10.475111637672283,0.083322871242403548,-0.44843259704663202,-9.736369889930975,0.091508368891880618,-0.19031795068223037,-0.0073621255689017328,-0.42317211595557525,0.0081469898275510627,
0.53429199999999999,-10.475111637259667,0.083211465151968575,-0.45106693847026857,-9.7085065488819833,0.09710216401920671,-0.1967961119201615,-0.0075015088065679275,-0.4215538559731955,0.0078774939870011051,
0.535748,-10.475111636847052,0.083100059061533602,-0.45370127989390513,-9.710639044941626,0.09018339249533068,-0.20468014486581185,-0.00713047630477556,-0.42195070658965361,0.0080312571083622046,
0.53669,-10.284205390596602,0.10250869587903545,-0.4710085471701238,-9.710639044556947,0.090079529051926052,-0.20713613062291059,-0.0071260504150583341,-0.42195001908095181,0.0080312280343668094,
0.53716299999999995,-10.284205390183986,0.10239728978860048,-0.47364288859376036,-9.7221767253026155,0.083984404474694435,-0.21170891785958093,-0.0069002249114839785,-0.42333167176147596,0.0080814922613608592,
0.53861000000000003,-10.284205389771371,0.10228588369816551,-0.47627723001739691,-9.7188308958504859,0.088095998939471856,-0.21394322898189694,-0.0071944371817738899,-0.42370211484069892,0.0085977004064865525,
0.54002499999999998,-10.284205389327809,0.10216209915323772,-0.47901709776558438,-9.6856098916423701,0.084426772347412041,-0.21699747563090288,-0.006755712845391503,-0.42178460145827645,0.0081632253892213163,
0.54064199999999996,-10.137645356842521,0.063488576945408992,-0.49238541684874038,-9.6856098912288395,0.08431136852140686,-0.21955184314967099,-0.0067507856981436779,-0.42178388640879338,0.0081631930847827425,
0.54144199999999998,-10.137645356398959,0.063364792400481207,-0.49512528459692784,-9.6353629759602146,0.084345371413325154,-0.22212978102458988,-0.0066465547658675532,-0.41916998120582843,0.0082516351832248001,
0.54290000000000005,-10.137645355955398,0.063241007855553422,-0.4978651523451153,-9.578119123548321,0.091697731146695424,-0.22495062248705436,-0.0069213460101695528,-0.41565349575615151,0.0088510835116687447,
0.54431799999999997,-10.137645355511836,0.063117223310625636,-0.50060502009330277,-9.531870452570919,0.086862016829193547,-0.23328862045242907,-0.0066086076293267347,-0.41294170543947317,0.0086226563409927126,
0.54458300000000004,-10.186966505791977,0.038808847931949338,-0.52198053450160165,-9.5318704521573885,0.086746613003188366,-0.23584298797119718,-0.0066036804820789096,-0.4129409903899901,0.0086226240365541388,
0.54575099999999999,-10.186966505348416,0.038685063387021545,-0.52472040224978911,-9.5220318703558338,0.10364475473508829,-0.23961213982904866,-0.0079457265385376816,-0.4128074922954641,0.0084494045925880504,
0.54718699999999998,-10.186966504904854,0.038561278842093753,-0.52746026999797657,-9.5186340240835587,0.11146120636456494,-0.24534482038095709,-0.0080246657589565715,-0.41339974931955425,0.0081287743322057092,
0.54852900000000004,-10.030143878152362,0.058501696984063968,-0.61554217113921428,-9.5186340236700282,0.11134580253855976,-0.2478991878997252,-0.0080197386117087464,-0.41339903427007119,0.0081287420277671354,
0.548628,-10.030143877708801,0.058377912439136176,-0.61828203888740174,-9.4926243091252562,0.1203578569709991,-0.25487275170722629,-0.0086973368939195148,-0.41254082696564542,0.0091146200032414006,
0.55005899999999996,-10.030143877213662,0.058244844053338914,-0.6210862745989516,-9.453526549572258,0.12871047389868789,-0.25836413133776115,-0.0088958988779682772,-0.41045500892195608,0.0084183396281854277,
0.55147599999999997,-10.030143876718524,0.058111775667541651,-0.62389051031050147,-9.4041985822061314,0.1287549701433052,-0.26747707689637223,-0.0089870677719331923,-0.40757610893688689,0.0076236287348904292,
0.55245999999999995,-9.9099166609150444,-0.10161271817477174,-0.59897559129160083,-9.4041985817445166,0.12863091103034974,-0.27009145440466298,-0.0089817639321914354,-0.40757537708699659,0.0076235940076180347,
0.55291400000000002,-9.9099166604199063,-0.10174578656056901,-0.60177982700315069,-9.3723514349020256,0.1322221157773438,-0.27382414520377268,-0.0085329309195804389,-0.40634491228678266,0.0079340105460416494,
0.55434499999999998,-9.9099166599247681,-0.10187885494636628,-0.60458406271470055,-9.3534318947983568,0.14140871947084599,-0.27956609583510245,-0.0094231812954834009,-0.40520149723382015,0.0088221962313590058,
0.55577299999999996,-9.90991665942963,-0.10201192333216355,-0.60738829842625042,-9.3486939417652994,0.13675556781439782,-0.28463115676537531,-0.0087154420991427655,-0.40590013728841151,0.0086569643421454279,
0.55641600000000002,-9.8231794105875547,0.022487278268440686,-0.59920995244363806,-9.3486939413036847,0.13663150870144236,-0.28724553427366606,-0.0087101382594010086,-0.40589940543852121,0.0086569296148730334,
0.55718800000000002,-9.8231794100924166,0.022354209882643424,-0.60201418815518792,-9.3421288477009643,0.13321188487747371,-0.29146047864232177,-0.0084098722468397297,-0.40529283385601678,0.0083399441529362715,
0.55862800000000001,-9.8231794095972784,0.022221141496846161,-0.60481842386673779,-9.3488554842199001,0.12616872793456593,-0.29476946058501907,-0.0082526448680053134,-0.4067617067355927,0.0081937884558128966,
0.56006699999999998,-9.8231794090711944,0.022077757732304852,-0.60764793225621039,-9.322754070124887,0.10851700187938049,-0.30190260725284079,-0.0075437794275798322,-0.40486975977636441,0.0079472886152324781,
0.56036799999999998,-9.8358724162312274,0.063059751660465652,-0.51202177039056129,-9.3227540696344207,0.10838332578092452,-0.30454054637560762,-0.0075380546953745277,-0.40486902132972263,0.0079472511959238403,
0.56156399999999995,-9.8358724157051434,0.062916367895924349,-0.51485127878003389,-9.2953225378397253,0.097016698041439545,-0.30929509726834642,-0.0068584431597440718,-0.40318648724566508,0.0087208589004524849,
0.56297699999999995,-9.8358724151790593,0.062772984131383047,-0.5176807871695065,-9.2824941134560355,0.098594074480326241,-0.31616909881043864,-0.0069379635767453868,-0.40206787802356764,0.0081428469593510765,
0.56437000000000004,-9.845631475471901,0.088862872578562985,-0.53415365487414013,-9.2824941129655691,0.098460398381870276,-0.31880703793320547,-0.0069322388445400823,-0.40206713957692586,0.0081428095400424387,
0.56438299999999997,-9.8456314749458169,0.088719488814021683,-0.53698316326361273,-9.3019154400345929,0.089351591925932644,-0.32690507018884929,-0.0065202445064534613,-0.40395326398423809,0.0082051577261183679,
0.56579900000000005,-9.8456314744197329,0.08857610504948038,-0.53981267165308533,-9.327331362394073,0.08284112885886516,-0.33589703798622755,-0.0060660463460022532,-0.40555387477380245,0.0082646492903747214,
0.56723999999999997,-9.8456314738936488,0.088432721284939078,-0.54264218004255793,-9.3599322984279389,0.081911623735964112,-0.34443694835183886,-0.006281368076715651,-0.40801984250963091,0.0088074657961982727,
0.56825000000000003,-9.7756391432794327,0.094412588419862664,-0.56272969929081484,-9.3599322979374726,0.081777947637508147,-0.34707488747460569,-0.0062756433445103465,-0.40801910406298914,0.0088074283768896349,
0.56867100000000004,-9.7756391427533487,0.094269204655321362,-0.56555920768028745,-9.3706942546565859,0.085620023343567511,-0.35500253296092354,-0.006370016140177375,-0.40894922104967169,0.0084935679564340782,
0.57012200000000002,-9.7756391421963187,0.094118600125659355,-0.56838654984022374,-9.3551313828946228,0.072277607841535543,-0.36487349007655689,-0.0057045001814700009,-0.40762453932311249,0.00840767652615774,
0.571546,-9.7756391416392887,0.093967995595997347,-0.57121389200016004,-9.3559897006977426,0.064607002710541594,-0.37554021704473239,-0.0052002132739882283,-0.4073802334332679,0.0082553130363953418,
0.57218000000000002,-9.8416976981002211,0.094399103342737947,-0.62220631575055607,-9.3559897001784247,0.064466594722235412,-0.37817613660054411,-0.0051941929100839078,-0.40737949555068692,0.0082552737326608647,
0.57295799999999997,-9.8416976975431911,0.09424849881307594,-0.62503365791049237,-9.3870078573871147,0.071858751460939563,-0.38664649328660505,-0.0058681438851474789,-0.40917010295260298,0.008225235346453575,
0.57440800000000003,-9.8416976969861611,0.094097894283413933,-0.62786100007042867,-9.4325944916424707,0.074837287558155136,-0.3977821152607468,-0.0066174801654860843,-0.41179384919910922,0.0086582663416598302,
0.57582100000000003,-9.8416976964291312,0.093947289753751925,-0.63068834223036496,-9.4910895324979911,0.077743670667553083,-0.40676627025370382,-0.0066834032721307798,-0.41504835700979115,0.0089388894571971224,
0.57610700000000004,-9.8923808182748747,0.094386024423936676,-0.67220023267526186,-9.4910895319786732,0.077603262679246901,-0.40940218980951554,-0.0066773829082264593,-0.41504761912721017,0.0089388501534626453,
0.57725499999999996,-9.8923808177178447,0.094235419894274669,-0.67502757483519815,-9.5464307794163865,0.085741885072388238,-0.41042447604978027,-0.0070417985329615526,-0.41845754657608369,0.0086587669691380216,
0.578712,-9.8923808171608147,0.094084815364612662,-0.67785491699513445,-9.5842890542616832,0.083998066380705436,-0.41424015881560522,-0.0071088960539150382,-0.42076300969090097,0.0087370972054084672,
0.58004800000000001,-10.02713169424011,0.095353165987360766,-0.71529944251292699,-9.5842890537423653,0.083857658392399254,-0.41687607837141694,-0.0071028756900107176,-0.42076227180831999,0.0087370579016739901,
0.58012600000000003,-10.02713169368308,0.095202561457698759,-0.71812678467286328,-9.5959517026767926,0.06761099494513749,-0.41675622882102936,-0.0056914127972472707,-0.42097213115442322,0.008126355499015761,
0.58154899999999998,-10.027131693105419,0.095044736162916046,-0.72095330160250015,-9.5965876171480549,0.065773063036083781,-0.4198657747848405,-0.0056722135898224779,-0.42093605087519609,0.0081109774594383312,
0.58300300000000005,-10.027131692527758,0.094886910868133334,-0.72377981853213702,-9.5984730219163357,0.070714009712103801,-0.42005175135210099,-0.0060307611601189319,-0.42028389484076073,0.0082506558844563874,
0.58398099999999997,-10.103231520583915,0.058910037111035762,-0.75391016417784862,-9.5984730213777851,0.070566869833947402,-0.42268690154907268,-0.0060244452325190698,-0.42028315717269815,0.0082506146962965914,
0.58441900000000002,-10.103231520006254,0.05875221181625305,-0.75673668110748549,-9.6188298303144055,0.070021835257263298,-0.43108683283763749,-0.0058033886341139849,-0.42124131902913331,0.0083809884311273428,
0.58586300000000002,-10.103231519428594,0.058594386521470337,-0.75956319803712236,-9.6618108030123295,0.07523623511095047,-0.4350066436280477,-0.0064127757372064529,-0.42324775065441378,0.0084458297980377611,
0.58728800000000003,-10.103231518850933,0.058436561226687625,-0.76238971496675922,-9.7166022052262431,0.072499573827858932,-0.44148503093601865,-0.006693116365563483,-0.42650052004127187,0.0083918794228280934,
0.58795799999999998,-10.161742161575912,0.035790477544205321,-0.74517156123355643,-9.7166022046876925,0.072352433949702533,-0.44412018113299034,-0.0066868004379636208,-0.42649978237320929,0.0083918382346682974,
0.58870999999999996,-10.161742160998251,0.035632652249422608,-0.7479980781631933,-9.7777719585098382,0.062451153974864899,-0.44856208223720356,-0.0057675390384907526,-0.42967182562812894,0.0081603248691589012,
0.59018499999999996,-10.161742160369013,0.035461416962272507,-0.7509141325803278,-9.8402244252243563,0.065183880812203582,-0.45131486638357049,-0.0061603892418241003,-0.43411165220075237,0.0082617162107949584,
0.59160299999999999,-10.161742159739774,0.035290181675122406,-0.75383018699746229,-9.8617443347263904,0.057485115502442716,-0.4493603941967913,-0.005927319906689571,-0.43454895652087683,0.0087515607667835379,
0.59186099999999997,-10.284500212365627,0.070426738794302973,-0.77010175728331787,-9.8617443341397539,0.057325473543135552,-0.45207901982790666,-0.0059204596933416847,-0.43454819548384244,0.0087515160789760522,
0.59304400000000002,-10.284500211736388,0.070255503507152872,-0.77301781170045236,-9.8692177061419777,0.040965635068640316,-0.44800518954548213,-0.0047356946000947486,-0.43468340529267396,0.0077890932822882999,
0.59445499999999996,-10.284500211107149,0.070084268220002771,-0.77593386611758686,-9.8628649967865911,0.029090541699485578,-0.44078077038126484,-0.0042237024393165104,-0.43328908235768265,0.0072467231512760681,
0.59582400000000002,-10.368811372814339,0.03964808953231197,-0.78869682503083727,-9.8628649961999546,0.028930899740178418,-0.4434993960123802,-0.0042168422259686242,-0.43328832132064826,0.0072466784634685824,
0.59588300000000005,-10.3688113721851,0.039476854245161869,-0.79161287944797176,-9.8705003205701036,0.00053835981263992624,-0.43460633387070713,-0.0022714509070597779,-0.43363631919952245,0.0076909676641819013,
0.59734799999999999,-10.368811371555861,0.039305618958011768,-0.79452893386510626,-9.8959235762475473,-0.017020663769137578,-0.43008899629278069,-0.0013305588120224141,-0.43455583544687343,0.0082779402852919664,
0.59873900000000002,-10.368811370926622,0.039134383670861667,-0.79744498828224075,-9.9428520670751706,-0.0068265121800456033,-0.42641087719546661,-0.0021500279781818741,-0.43759510749652564,0.0082818970252103979,
0.599773,-10.433498894561097,0.020080568080845861,-0.77128690598833616,-9.942852066488534,-0.0069861541393527642,-0.42912950282658197,-0.0021431677648339879,-0.43759434645949125,0.0082818523374029122,
0.60017100000000001,-10.433498893869967,0.019892828187705588,-0.77432746702691047,-9.9680001843535599,-0.0030890727101477852,-0.42753039954303157,-0.00251348931596588,-0.4392000951612941,0.0084171248654705492,
0.60162700000000002,-10.433498893178836,0.019705088294565316,-0.77736802806548477,-9.9598979248237054,0.0080545443776726261,-0.42588442827162559,-0.0031605937764858641,-0.43857190159648474,0.0083138308144679093,
0.60303499999999999,-10.433498892487705,0.019517348401425043,-0.78040858910405908,-9.9339174239617059,0.016430233740387552,-0.42327372708282357,-0.0040572916448182988,-0.43648039342219697,0.0074458151973122756,
0.60367000000000004,-10.557043616278225,-0.010739350518599214,-0.74796739854685557,-9.9339174233173679,0.016255204604279885,-0.42610842972892909,-0.0040497622668235495,-0.43647959988977098,0.0074457662022461733,
0.60446100000000003,-10.557043615587094,-0.010927090411739485,-0.75100795958542987,-9.9023478076535962,0.0095042579137238729,-0.42389317219320255,-0.0030648219198233006,-0.43413028573975193,0.0082517036328552743,
0.60589499999999996,-10.557043614895964,-0.011114830304879756,-0.75404852062400418,-9.9024562246052117,0.020391429485568012,-0.4202070413587794,-0.0036996101419380376,-0.43345218897319199,0.008382843629560115,
0.60733899999999996,-10.557043614204833,-0.011302570198020027,-0.75708908166257849,-9.9337572100785252,0.038723944235519975,-0.41764115283934783,-0.0052158572295111401,-0.43565937758421719,0.0072565896567261022,
0.60759200000000002,-10.608995289402586,0.0039983789043713993,-0.72836736916261013,-9.9337572094341873,0.038548915099412308,-0.42047585548545335,-0.0052083278515163908,-0.4356585840517912,0.0072565406616599999,
0.60877499999999996,-10.608995288711455,0.0038106390112311278,-0.73140793020118444,-9.958133057450457,0.067877442448970399,-0.41653511069840321,-0.0066194577288090743,-0.43731711035780896,0.0080605141032413681,
0.61022900000000002,-10.608995287958432,0.0036043314363515379,-0.73460177776789426,-9.9430034861858676,0.098324727634071935,-0.41373523866454498,-0.0084460498592070811,-0.43637621708262181,0.0085127892070311802,
