time,ax,ay,az,fx,fy,fz,tx,ty,tz,
0.001436,-9.7555174717599016,2.0794419166054876,-0.17241878294212526,-9.1973514298196068,0.089674085251759239,0.12998019542842984,-0.004801523042428632,-0.40186672238416393,0.008770264244355376,
0.0028969999999999998,-9.7555250498600579,4.1425176654006641,-0.17239480040862204,-9.2038358793430479,1.0360436267634001,0.11592539661912045,-0.046839933191797502,-0.40223258839200909,0.0088671061712224681,
0.0043239999999999997,-9.7555326279602141,6.2055934141958407,-0.17237081787511882,-9.2075831175029652,1.9851410175013295,0.12008459975777798,-0.088575376690254948,-0.40224793735057202,0.0090572361751800889,
0.0052040000000000003,-9.7531561376881619,0.066545188129930821,-0.15169691908288846,-9.2075901825348101,3.9085381175864966,0.12010695857587748,-0.173010188974693,-0.4022482537557433,0.0095956434941333255,
0.0057489999999999998,-9.7531637157883182,2.1296209369251078,-0.15167293654938524,-9.212561236200024,4.373311760910056,0.11523713676899426,-0.19305700223719247,-0.40266879504761871,0.0097137210792536642,
0.0071799999999999998,-9.7531712938884745,4.1926966857202848,-0.15164895401588202,-9.2186167637047607,5.0254768169526685,0.11639524690398748,-0.22136560198132854,-0.40296240578174325,0.0096364199979534805,
0.0085979999999999997,-9.7531788719886308,6.2557724345154622,-0.1516249714823788,-9.2263013893446271,5.7596856483238934,0.11488145970497605,-0.25323574928174369,-0.40332525971254118,0.0096842344608506631,
0.0091409999999999998,-9.7543454409534753,4.1085688714691573,-0.15125052757623353,-9.226308454376472,7.6830827484090607,0.11490381852307556,-0.33767056156618175,-0.40332557611771247,0.0102226417798039,
0.010023000000000001,-9.7543454409534753,4.1085688714691573,-0.15125763580057222,-9.2298685030835781,6.5451022682866533,0.11892528845867634,-0.28699649108113578,-0.40348431599279333,0.0096249568181084391,
0.011448,-9.7543454409534753,4.1085688714691573,-0.15126474402491091,-9.2396334893401733,5.693180918889488,0.13115056787508061,-0.24948071699946675,-0.4037346995565777,0.0092751125902438818,
0.012886,-9.7543454409534753,4.1085688714691573,-0.15127185224924961,-9.2562052842526086,5.0048267511295066,0.13785069586811735,-0.21816213923588323,-0.40459333171033773,0.0088416119083304049,
0.013103999999999999,-9.754739072885398,2.6698137574205729,-0.15194403130432987,-9.2562052842526086,5.0048267511295066,0.13784406889957887,-0.21816213959634873,-0.40459332985528357,0.0088416119083304049,
0.014319,-9.754739072885398,2.6698137574205729,-0.15195113952866857,-9.2669996553678651,4.4574929934574108,0.14450139115096891,-0.19360793101149354,-0.40514428660710311,0.0084933739352237823,
0.015737999999999999,-9.754739072885398,2.6698137574205729,-0.15195824775300726,-9.26592097531198,4.0108026661501022,0.15189518148959114,-0.17381319903150702,-0.40490692073080459,0.0084249052715562427,
0.017070999999999999,-9.7692164703082671,1.9490532711268824,-0.124531007033113,-9.26592097531198,4.0108026661501022,0.15188855452105265,-0.17381319939197251,-0.40490691887575042,0.0084249052715562427,
0.017180000000000001,-9.7692164703082671,1.9490532711268824,-0.12453811525745169,-9.261571730023368,3.6221125674419912,0.14068816118749702,-0.15580211769105345,-0.40459650359128124,0.0083440569779040987,
0.018627000000000001,-9.7692164703082671,1.9490532711268824,-0.12454522348179038,-9.2611387552817295,3.3156493890998586,0.14606327278442155,-0.1420022540631343,-0.40452624303055867,0.0084593517173858768,
0.020055,-9.7692164703082671,1.9490532711268824,-0.12454998980569282,-9.2699850242207216,3.0482512614285246,0.14752019303036373,-0.13049443668423902,-0.40498279961852784,0.0087282663586216221,
0.020967,-9.7713987422431146,1.4870617852775792,-0.10790320663331604,-9.2699850242207216,3.0482512614285246,0.14751574940604339,-0.13049443692594428,-0.40498279837464629,0.0087282663586216221,
0.021492000000000001,-9.7713987422431146,1.4870617852775792,-0.10790797295721848,-9.2821124778053878,2.7884462171759723,0.14961422163200289,-0.11816133012695801,-0.40540776796211059,0.0084256850448934262,
0.022911999999999998,-9.7713987422431146,1.4870617852775792,-0.10791273928112091,-9.2911065898123582,2.5752328185013891,0.15650901078308477,-0.1088196563512695,-0.40599387383556235,0.0084387857002410568,
0.024362999999999999,-9.7713987422431146,1.4870617852775792,-0.10791750560502335,-9.29198691323319,2.3756691903795599,0.16183768001678905,-0.099610504440734257,-0.40589720975992816,0.0085512556703777644,
0.024902000000000001,-9.7728780095661243,1.170475536951298,-0.099600950262487442,-9.29198691323319,2.3756691903795599,0.16183323639246872,-0.099610504682439538,-0.4058972085160466,0.0085512556703777644,
0.025808000000000001,-9.7728780095661243,1.170475536951298,-0.099605716586389878,-9.2915489050284226,2.1997347848859183,0.159622053907501,-0.091566900662126097,-0.40581998872912034,0.0085134000455620064,
0.027241000000000001,-9.7728780095661243,1.170475536951298,-0.099610482910292314,-9.2964991469566982,2.0591225027667583,0.15820725754311968,-0.085731592040236185,-0.40612585818508923,0.0083832957537264118,
0.028642999999999998,-9.7728780095661243,1.170475536951298,-0.09961524923419475,-9.3057932816670412,1.9200625433083331,0.15764798425377091,-0.079378564685229955,-0.40657951483551907,0.0086092527315381005,
0.028843000000000001,-9.8001722022055322,0.95029900706374437,-0.09215901544767216,-9.3057932816670412,1.9200625433083331,0.15764354062945057,-0.079378564926935236,-0.40657951359163752,0.0086092527315381005,
0.030075999999999999,-9.8001722022055322,0.95029900706374437,-0.092185896086833516,-9.3111081349787135,1.7961554566116695,0.15773442313806316,-0.074013202921685409,-0.40679573042494827,0.0086562134993842174,
0.031517999999999997,-9.8001722022055322,0.95029900706374437,-0.092212776725994872,-9.3120358308046196,1.6758204674372374,0.15897299515598023,-0.06862064072390836,-0.40699537248175632,0.0087173798251313737,
0.032799000000000002,-9.8310118721670232,0.78357396791432188,-0.086569611140840122,-9.3120358308046196,1.6758204674372374,0.15894793444580438,-0.068620642087053721,-0.406995365466637,0.0087173798251313737,
0.032983999999999999,-9.8310118721670232,0.78357396791432188,-0.086596491780001478,-9.3096384798735752,1.5598454395098913,0.1581031697762032,-0.063119614048709125,-0.40680289211964105,0.0088988087855699106,
0.034370999999999999,-9.8310118721670232,0.78357396791432188,-0.086623372419162833,-9.3101963418993474,1.4702736586129344,0.15835667539540696,-0.059484723815003901,-0.40671327311758165,0.0087075545980446947,
0.035809000000000001,-9.8310118721670232,0.78357396791432188,-0.086650253058324189,-9.3117320185802921,1.3860721377885739,0.1557450727685562,-0.055874540986222444,-0.40682697969144921,0.008435393336303991,
0.036727000000000003,-9.8553955812705745,0.65327277668356776,-0.086032244126795429,-9.3117320185802921,1.3860721377885739,0.15572001205838035,-0.055874542349367798,-0.40682697267632989,0.008435393336303991,
0.037238,-9.8553955812705745,0.65327277668356776,-0.086059124765956785,-9.3115319349175252,1.3061951973295376,0.15216353006685251,-0.052345476470615743,-0.40678158828647148,0.0086010896425572393,
0.038689000000000001,-9.8553955812705745,0.65327277668356776,-0.086086005405118141,-9.3085254491291245,1.2358490844412597,0.15109258561621741,-0.04963488856632637,-0.40654777973531586,0.0084684641086268803,
0.040118000000000001,-9.8553955812705745,0.65327277668356776,-0.086091445735867717,-9.3047009904543572,1.1580222175148409,0.14914025566125289,-0.046087814632174123,-0.40642934327801311,0.0084703761609617716,
0.040647999999999997,-9.8445358706011046,0.57981130886111854,-0.094262448099561108,-9.3047009904543572,1.1580222175148409,0.14913518366309997,-0.046087814908058994,-0.40642934185823404,0.0084703761609617716,
0.041537999999999999,-9.8445358706011046,0.57981130886111854,-0.094267888430310684,-9.3001857927370004,1.0894314045406135,0.14921693541073677,-0.04307345013017725,-0.40614352383292868,0.0084523376291489594,
0.042967999999999999,-9.8445358706011046,0.57981130886111854,-0.09427332876106026,-9.2962248728845207,1.0312343699244169,0.1473420188329361,-0.040755710668982384,-0.40581108176658082,0.0085741543026475863,
0.044407000000000002,-9.8445358706011046,0.57981130886111854,-0.094278769091809836,-9.2939476232302631,0.97529485661206416,0.14459503563785531,-0.038378171108762509,-0.40583765603845712,0.0087584786765206261,
0.044585,-9.8301530741649898,0.48991368820646108,-0.10104099356359365,-9.2939476232302631,0.97529485661206416,0.14458996363970239,-0.038378171384647379,-0.40583765461867805,0.0087584786765206261,
0.045844000000000003,-9.8301530741649898,0.48991368820646108,-0.10104643389434323,-9.288913167887408,0.92988174569739168,0.14214666535692208,-0.03671138809752332,-0.40541825921260122,0.0088568084477599913,
0.047258000000000001,-9.8301530741649898,0.48991368820646108,-0.10105187422509281,-9.2829052912953909,0.87937345361892394,0.13885347678986093,-0.03457497938455853,-0.40499215682914125,0.0086168841744240793,
0.048544999999999998,-9.818023818892188,0.41672705611241601,-0.10244639627040421,-9.2829052912953909,0.87937345361892394,0.13884840479170801,-0.0345749796604434,-0.40499215540936218,0.0086168841744240793,
0.048698999999999999,-9.818023818892188,0.41672705611241601,-0.10245183660115378,-9.2763578620251241,0.82772221186575412,0.13703808285924354,-0.032279951296097516,-0.40468659008164054,0.0085592331690038676,
0.050133999999999998,-9.818023818892188,0.41672705611241601,-0.10245115578615668,-9.2706855204814875,0.78489106621939841,0.13624915257600009,-0.030690755229154827,-0.40451061481660799,0.0085970004144955911,
0.051588000000000002,-9.818023818892188,0.41672705611241601,-0.10245047497115958,-9.265985566812029,0.74039944439102745,0.1335735987484194,-0.028710007478545047,-0.40402741840011469,0.00810418825433608,
0.052468000000000001,-9.8023736502393533,0.36860588718723541,-0.10909499222675657,-9.265985566812029,0.74039944439102745,0.13357423346946243,-0.028710007444020205,-0.40402741857778895,0.00810418825433608,
0.053017000000000002,-9.8023736502393533,0.36860588718723541,-0.10909431141175947,-9.2635998407451225,0.70366133470552472,0.1310299690974713,-0.027335056571692558,-0.40412867967497268,0.0078100419226198696,
0.054457999999999999,-9.8023736502393533,0.36860588718723541,-0.10909363059676237,-9.2577985331740713,0.67210910336655838,0.12952692037825983,-0.026373985291446293,-0.40371793094167424,0.0081309767653272198,
0.055863999999999997,-9.8023736502393533,0.36860588718723541,-0.10909294978176527,-9.2508331450096026,0.63459500077553677,0.12727044605843105,-0.024815547375841674,-0.40332117586171612,0.0082706661848009864,
0.056411000000000003,-9.7907840336746013,0.33073814701989218,-0.11485003751009172,-9.2508331450096026,0.63459500077553677,0.12727108077947408,-0.024815547341316833,-0.40332117603939038,0.0082706661848009864,
0.057298000000000002,-9.7907840336746013,0.33073814701989218,-0.11484935669509462,-9.2431546962743703,0.59920063769940968,0.12548964183586075,-0.02339104629850814,-0.40284557907884627,0.0080392742836747407,
0.058751999999999999,-9.7907840336746013,0.33073814701989218,-0.11484867588009752,-9.2398920398137303,0.56623288250252957,0.12583793932627932,-0.022020971122646515,-0.40280246506924577,0.0084230206843242481,
0.060174999999999999,-9.7907840336746013,0.33073814701989218,-0.11484700788335461,-9.2363459201409182,0.5350633546963226,0.1236325130901428,-0.020693612445956668,-0.40251882932489275,0.0086042017355427505,
0.060366000000000003,-9.7807083189321791,0.29953668557732005,-0.12638661917719293,-9.2363459201409182,0.5350633546963226,0.12363406815669821,-0.020693612361370805,-0.40251882976019476,0.0086042017355427505,
0.061637999999999998,-9.7807083189321791,0.29953668557732005,-0.12638495118045004,-9.2366608957183782,0.5086791327486625,0.12232726130297317,-0.019800856452367802,-0.4026297664163791,0.0085988396379995807,
0.063083,-9.7807083189321791,0.29953668557732005,-0.12638328318370715,-9.2365501918235182,0.48361230822839807,0.12091877018737129,-0.018898589599821988,-0.40266453922938972,0.0088928029235587382,
0.064308000000000004,-9.7700566401480025,0.25477705935334072,-0.1266316516105305,-9.2365501918235182,0.48361230822839807,0.12092032525392671,-0.018898589515236125,-0.40266453966469173,0.0088928029235587382,
0.064473000000000003,-9.7700566401480025,0.25477705935334072,-0.12662998361378761,-9.2341808357233344,0.4604901940623114,0.12010412062163923,-0.018016650134230559,-0.40246618925911648,0.008771995017334425,
0.065914,-9.7700566401480025,0.25477705935334072,-0.12662831561704471,-9.2313426556239317,0.43491780575122702,0.11913228116099044,-0.017050592983917791,-0.40227659509981034,0.0086045938575780388,
0.067343,-9.7700566401480025,0.25477705935334072,-0.12662664762030182,-9.228798559388153,0.40920591503838005,0.11961703858637741,-0.01589501213054664,-0.40215193618106099,0.0087238280378528071,
0.068251999999999993,-9.7648468779744739,0.22069652821728566,-0.12684800880539771,-9.228798559388153,0.40920591503838005,0.11961859365293283,-0.015895012045960777,-0.402151936616363,0.0087238280378528071,
0.068796999999999997,-9.7648468779744739,0.22069652821728566,-0.12684634080865481,-9.2311876395223251,0.38848665625042889,0.11988330256201682,-0.015306686874467238,-0.40234331386269861,0.0088222302692265962,
0.070210999999999996,-9.7648468779744739,0.22069652821728566,-0.12684244572164108,-9.2323023666947162,0.36970248833231678,0.11953199258106208,-0.014598743274373757,-0.40226518847095638,0.008631205418834385,
0.071618000000000001,-9.7648468779744739,0.22069652821728566,-0.12683855063462735,-9.2365006088640431,0.35180750108754522,0.11925759045638018,-0.013999335639854891,-0.40263214929058283,0.0087526737821115152,
0.072187000000000001,-9.7602498304382586,0.19253180816649512,-0.13338722212250426,-9.2365006088640431,0.35180750108754522,0.11926122183010514,-0.013999335442330951,-0.40263215030709515,0.0087526737821115152,
0.073052000000000006,-9.7602498304382586,0.19253180816649512,-0.13338332703549052,-9.2390444046491726,0.33653815165034678,0.12042383042363716,-0.013564474478549735,-0.40265065361359875,0.0087536785859690033,
0.074493000000000004,-9.7602498304382586,0.19253180816649512,-0.13337943194847679,-9.2422862652214803,0.31716040397579159,0.12122224927537532,-0.012808176318598489,-0.40297159411977307,0.0086667772515669744,
0.075922000000000003,-9.7602498304382586,0.19253180816649512,-0.13337553686146306,-9.2417103593243723,0.29873761522829029,0.12253124972881164,-0.012009072040786372,-0.40293277770432412,0.0087530764668919386,
0.076123999999999997,-9.7694240752980015,0.17253212171853069,-0.13588025995142444,-9.2417103593243723,0.29873761522829029,0.1225348811025366,-0.012009071843262432,-0.40293277872083644,0.0087530764668919386,
0.077341999999999994,-9.7694240752980015,0.17253212171853069,-0.13587636486441071,-9.2421785829380667,0.28212953808966645,0.12433116026876294,-0.011378837634464213,-0.40301925038255271,0.008822287086631863,
0.078783000000000006,-9.7694240752980015,0.17253212171853069,-0.13587246977739698,-9.2429061554548237,0.26874016336110201,0.12462246119390571,-0.010854918260571144,-0.40301964204461538,0.0086729453323466914,
0.080060000000000006,-9.7775675361926613,0.13745976913152941,-0.13813842047169531,-9.2429061554548237,0.26874016336110201,0.12462609256763067,-0.010854918063047204,-0.4030196430611277,0.0086729453323466914,
0.080221000000000001,-9.7775675361926613,0.13745976913152941,-0.13813193106692748,-9.2473379236553299,0.25819951656812873,0.12546584455697976,-0.010656052412091423,-0.40332806906435087,0.0088052652255740799,
0.081689999999999999,-9.7775675361926613,0.13745976913152941,-0.13812544166215965,-9.2530807686089425,0.24837172199127935,0.1262807813276432,-0.010356338616877578,-0.40355004685729401,0.0088406703455978786,
0.083068000000000003,-9.7775675361926613,0.13745976913152941,-0.13811895225739182,-9.2605086631800564,0.23625170987854374,0.12640781360687847,-0.0099281362672345927,-0.40405238414585215,0.0087443929675804135,
0.084006999999999998,-9.7777659968551269,0.10841698372144733,-0.13307550307578994,-9.2605086631800564,0.23625170987854374,0.1264138636524568,-0.0099281359381500831,-0.40405238583941117,0.0087443929675804135,
0.084542999999999993,-9.7777659968551269,0.10841698372144733,-0.13306901367102211,-9.267492150093096,0.22417975096460074,0.12754573760841079,-0.0095546126985607653,-0.40441335386273891,0.0086934669972247632,
0.085944000000000007,-9.7777659968551269,0.10841698372144733,-0.13306252426625428,-9.2701198244765415,0.21154049038726958,0.12796416702671568,-0.0090508862529805559,-0.40455298667950318,0.0086672760218204411,
0.087400000000000005,-9.7777659968551269,0.10841698372144733,-0.13305603486148646,-9.26810926264843,0.20119093806540506,0.12865376989101929,-0.008666134378543848,-0.40445619595117521,0.0085207772132899501,
0.087960999999999998,-9.8015100814596874,0.1049448381835577,-0.1300769535037439,-9.26810926264843,0.20119093806540506,0.12865981993659761,-0.0086661340494593384,-0.40445619764473423,0.0085207772132899501,
0.088803000000000007,-9.8015100814596874,0.1049448381835577,-0.13007046409897607,-9.2670520046569074,0.19695131440695979,0.12880690159825745,-0.0086809273329214471,-0.40437157809179486,0.0084501441411112387,
0.090247999999999995,-9.8015100814596874,0.1049448381835577,-0.13005779227511183,-9.2682375914924116,0.19092376555442905,0.12831769967618303,-0.0086090526072818332,-0.40438853029046623,0.0083633965206208194,
0.091702000000000006,-9.8015100814596874,0.1049448381835577,-0.13004512045124758,-9.2726053137291409,0.18567543085052998,0.12867367686263476,-0.0085268008086010049,-0.40464391977808389,0.0082862103988565333,
0.091869000000000006,-9.8226780624614758,0.10577335267083232,-0.1273203027475141,-9.2726053137291409,0.18567543085052998,0.1286854907523029,-0.0085268001659995485,-0.40464392308508695,0.0082862103988565333,
0.093112,-9.8226780624614758,0.10577335267083232,-0.12730763092364986,-9.2793400292614798,0.17955469737420496,0.12972023974090319,-0.0083038655453906499,-0.40514666498567403,0.0083576610659196592,
0.094534000000000007,-9.8226780624614758,0.10577335267083232,-0.12729495909978561,-9.2814778606091171,0.17111557965541974,0.12990729519962646,-0.0079294482867118942,-0.40530047858368085,0.0083465836756708434,
0.095895999999999995,-9.8199227910756246,0.10646190072068698,-0.12672972823549136,-9.2814778606091171,0.17111557965541974,0.1299191090892946,-0.0079294476441104378,-0.40530048189068391,0.0083465836756708434,
0.095971000000000001,-9.8199227910756246,0.10646190072068698,-0.12671705641162712,-9.2799105629175394,0.16428965144075153,0.13039255168015504,-0.0077624580013083777,-0.40527250033889156,0.0083999835864016492,
0.097436999999999996,-9.8199227910756246,0.10646190072068698,-0.12670438458776287,-9.2745318020144953,0.16091157270298245,0.12970615579985989,-0.0077310857816136466,-0.40483738009624959,0.0084150550045942029,
0.098847000000000004,-9.8199227910756246,0.10646190072068698,-0.12669171276389862,-9.2717333176834025,0.16039846370569741,0.12825919278722184,-0.0077979673776409101,-0.40470307317149617,0.0083790830182038523,
0.099877999999999995,-9.8229368443609033,0.090526187019541543,-0.12443259212635258,-9.2717333176834025,0.16039846370569741,0.12827100667688998,-0.0077979667350394546,-0.40470307647849924,0.0083790830182038523,
0.100273,-9.8229368443609033,0.090526187019541543,-0.12440792970623633,-9.2678448172677133,0.16146618214224343,0.12607059052804231,-0.0081071149404711093,-0.40439301053327192,0.0083780041005424594,
0.10169,-9.8229368443609033,0.090526187019541543,-0.12438326728612009,-9.269077418576984,0.16040069587866704,0.12351350308374145,-0.008223116910447175,-0.40443272111559303,0.0084263851598907584,
0.10316400000000001,-9.8229368443609033,0.090526187019541543,-0.12435860486600385,-9.2725818390759756,0.15857143786400338,0.12194407867107018,-0.0082266444274570368,-0.40469302854514094,0.0082568697664284207,
0.103781,-9.8256290956495604,0.10206715487882194,-0.12227595082678211,-9.2725818390759756,0.15857143786400338,0.12196707134468403,-0.0082266431767998912,-0.40469303498136511,0.0082568697664284207,
0.10456699999999999,-9.8256290956495604,0.10206715487882194,-0.12225128840666587,-9.27385617926309,0.15612600437788579,0.12120905282670845,-0.0081988547305443145,-0.40476055431245916,0.0082909969035539384,
0.10601099999999999,-9.8256290956495604,0.10206715487882194,-0.12222662598654963,-9.2713116637226261,0.1521194036481206,0.11910233704215896,-0.0081148377053428047,-0.40470883836089788,0.0083852167213887066,
0.107447,-9.8256290956495604,0.10206715487882194,-0.12220196356643338,-9.2636137687827862,0.15149725638331957,0.11925357079489222,-0.0081926126376293696,-0.40412419485036399,0.0083657718695953412,
0.107705,-9.8230823190436709,0.11161578609129411,-0.13503897207664536,-9.2636137687827862,0.15149725638331957,0.11927656346850607,-0.008192611386972224,-0.40412420128658816,0.0083657718695953412,
0.108871,-9.8230823190436709,0.11161578609129411,-0.13501430965652911,-9.2562348991470085,0.15109980538732079,0.11822644268915126,-0.0081529709451746597,-0.40384543065336426,0.0082451482834083305,
0.110301,-9.8230823190436709,0.11161578609129411,-0.13500082075151454,-9.2474183528491416,0.15216194029425331,0.11748500289000016,-0.0082721177481124893,-0.4031896024367167,0.0083935228851790243,
0.111696,-9.8059360402500815,0.11830287805247415,-0.13782645792289566,-9.2474183528491416,0.15216194029425331,0.11749757854108979,-0.0082721170640759935,-0.40318960595695585,0.0083935228851790243,
0.111719,-9.8059360402500815,0.11830287805247415,-0.13781296901788109,-9.2432798570114709,0.15116364451206341,0.11711056670214393,-0.0081650606234416317,-0.40297041196144162,0.0084417806414661296,
0.113152,-9.8059360402500815,0.11830287805247415,-0.13779948011286652,-9.2451505827218288,0.14857250482204221,0.11542838118198892,-0.0081832611379982819,-0.40303034176958197,0.008519570269374754,
0.11459999999999999,-9.8059360402500815,0.11830287805247415,-0.13778599120785195,-9.2507368339761538,0.1454204042090011,0.11634908229555867,-0.0079327012282234214,-0.40343588540984809,0.0087011831367282307,
0.115609,-9.790592049505177,0.11642635418518582,-0.14039815919940773,-9.2507368339761538,0.1454204042090011,0.11636165794664829,-0.0079327005441869256,-0.40343588893008725,0.0087011831367282307,
0.11602700000000001,-9.790592049505177,0.11642635418518582,-0.14038467029439317,-9.2547434727283076,0.14394341116359843,0.11531855135736173,-0.0079959072889712029,-0.40368423265289477,0.0087964210862658578,
0.117442,-9.790592049505177,0.11642635418518582,-0.1403711813893786,-9.2519903957477432,0.14221130090296294,0.11455760821489874,-0.0079372135600731808,-0.40360468447055459,0.0087646178840350454,
0.118885,-9.790592049505177,0.11642635418518582,-0.14035769248436403,-9.2453254193980481,0.1428707850095198,0.11450533296425118,-0.008047960550496211,-0.40312327736816939,0.0087819830931745359,
0.119542,-9.786973940345419,0.11487270520021271,-0.14210084782443091,-9.2453254193980481,0.1428707850095198,0.11451790861534081,-0.0080479598664597151,-0.40312328088840854,0.0087819830931745359,
0.120338,-9.786973940345419,0.11487270520021271,-0.14209848488062204,-9.2382380110306137,0.14212640329228496,0.11371260259494383,-0.0082040557467787014,-0.40272817249477932,0.0086246768289597875,
0.12178899999999999,-9.786973940345419,0.11487270520021271,-0.14209612193681317,-9.2341946865560836,0.13976707231737071,0.11470625691527232,-0.0080046165746447372,-0.40242907642149878,0.0086327588641380414,
0.12321,-9.786973940345419,0.11487270520021271,-0.1420937589930043,-9.239480564675203,0.13600116333954546,0.11457354065080147,-0.0079107769374986495,-0.40271092790871876,0.0086557266425553222,
0.12348000000000001,-9.7667000597048688,0.10988518737112707,-0.14237278360125263,-9.239480564675203,0.13600116333954546,0.11457574361367005,-0.0079107768176712948,-0.40271092852538315,0.0086557266425553222,
0.124612,-9.7667000597048688,0.10988518737112707,-0.14237042065744376,-9.2507427295595885,0.13073944153282552,0.11550033820878358,-0.0076123455180159569,-0.40331969797182005,0.0087164749402623577,
0.12604899999999999,-9.7667000597048688,0.10988518737112707,-0.14236805771363489,-9.2661827075055392,0.12760908629517184,0.11599091722905497,-0.0075147357421749446,-0.40420890278015115,0.0088067069976588957,
0.127443,-9.7485155496824696,0.11233505814649723,-0.14262702276110392,-9.2661827075055392,0.12760908629517184,0.11599312019192355,-0.0075147356223475899,-0.40420890339681553,0.0088067069976588957,
0.12749199999999999,-9.7485155496824696,0.11233505814649723,-0.14262465981729505,-9.28378283733106,0.12500496316608506,0.1170463300885675,-0.0073798675330086459,-0.40534877757966614,0.0086997330073347572,
0.12892500000000001,-9.7485155496824696,0.11233505814649723,-0.14262229687348618,-9.2961575467602717,0.1226488213341986,0.11790282824600826,-0.0073442461813503354,-0.4061240332696065,0.0086032098576410976,
0.13034499999999999,-9.7485155496824696,0.11233505814649723,-0.14265032375753356,-9.3009238753138099,0.119489781414405,0.11898470338187278,-0.0071726900044441714,-0.40638475935068952,0.0086985719701751334,
0.131354,-9.7876916650804873,0.11436135169029994,-0.1415800607027663,-9.3009238753138099,0.119489781414405,0.11895857403226813,-0.0071726914257168066,-0.40638475203643132,0.0086985719701751334,
0.13178000000000001,-9.7876916650804873,0.11436135169029994,-0.14160808758681367,-9.3035325731369429,0.11554059156842553,0.12067483981150627,-0.0070173128128102301,-0.4063839890253042,0.0084422415466695374,
0.133217,-9.7876916650804873,0.11436135169029994,-0.14163611447086105,-9.3109958624539875,0.10947077874248422,0.12268955221036219,-0.0066740760459261658,-0.40672894661228454,0.0083560062717045313,
0.134633,-9.7876916650804873,0.11436135169029994,-0.14166414135490843,-9.3257703433516497,0.10560397078011503,0.1245503363494249,-0.006541856190732857,-0.4076226438281067,0.0083164380031812823,
0.135295,-9.8036048074056836,0.10000789211156445,-0.13383085892982624,-9.3257703433516497,0.10560397078011503,0.12452420699982025,-0.0065418576120054922,-0.4076226365138485,0.0083164380031812823,
0.13606499999999999,-9.8036048074056836,0.10000789211156445,-0.13385888581387362,-9.345380402228308,0.10487633867312626,0.12637197163605604,-0.0065493695128153459,-0.40880797308096772,0.0083836335200627912,
0.13750699999999999,-9.8036048074056836,0.10000789211156445,-0.133886912697921,-9.3653023333106109,0.10370807090060964,0.12718763838218525,-0.0065923851432631055,-0.41003864384665367,0.0082312914018271323,
0.13894500000000001,-9.8036048074056836,0.10000789211156445,-0.13391493958196837,-9.3792035508658422,0.1029268419716016,0.12880159320182297,-0.0066418681578713692,-0.41098604798202626,0.0081466696740577806,
0.139205,-9.8178668988767015,0.093057978792621912,-0.12664064464737562,-9.3792035508658422,0.1029268419716016,0.1287754638522183,-0.0066418695791440044,-0.41098604066776806,0.0081466696740577806,
0.140373,-9.8178668988767015,0.093057978792621912,-0.12669226899183772,-9.3826037260243904,0.10064654482425438,0.13016665090488425,-0.0065507872952475354,-0.41106132029323134,0.008278383812181208,
0.14182800000000001,-9.8178668988767015,0.093057978792621912,-0.12674389333629982,-9.3834663663012243,0.096911678289052949,0.13206750700049438,-0.0064485374272975678,-0.41096842085198126,0.0082989747196521406,
0.14313699999999999,-9.8899871938087411,0.08729910018808798,-0.12133012439020535,-9.3834663663012243,0.096911678289052949,0.13201937783485895,-0.0064485400452221273,-0.41096840737942453,0.0082989747196521406,
0.14326800000000001,-9.8899871938087411,0.08729910018808798,-0.12138174873466745,-9.387885682329685,0.092106145580093765,0.13404062802695221,-0.0061746894210613947,-0.41095134435585351,0.0082645915731876969,
0.144673,-9.8899871938087411,0.08729910018808798,-0.12143337307912955,-9.4032894198256489,0.088911825708790262,0.13651202752614969,-0.005932352549904883,-0.41186168934181305,0.0083912260954493948,
0.14611199999999999,-9.8899871938087411,0.08729910018808798,-0.12148499742359165,-9.4241681756209044,0.08767046024676009,0.13811649851480234,-0.0059777935289396789,-0.41311963485943459,0.0084531842231142934,
0.14707700000000001,-9.9091502728283327,0.075541048097869032,-0.1144558241624275,-9.4241681756209044,0.08767046024676009,0.13806836934916691,-0.0059777961468642383,-0.41311962138687786,0.0084531842231142934,
0.14754400000000001,-9.9091502728283327,0.075541048097869032,-0.1145074485068896,-9.4477295250905318,0.086060344609474163,0.14020545657840949,-0.0060633595845780352,-0.41454775043101821,0.0084827733813360659,
0.14896699999999999,-9.9091502728283327,0.075541048097869032,-0.1145590728513517,-9.4636839616421149,0.084749254491120571,0.14201260653349831,-0.0060648116518989357,-0.4156599893704897,0.0086128621687469008,
0.15040500000000001,-9.9091502728180174,0.075541048097869032,-0.1146559156900759,-9.4662501030940316,0.081083134333682499,0.14437098819566915,-0.0058559074049003689,-0.4155595937986663,0.0087611497780929332,
0.15096000000000001,-9.9263206516739366,0.065817762223883941,-0.10815632580397889,-9.4662501030844144,0.081083134333682499,0.14428070201239407,-0.0058559123159021174,-0.41555956852488424,0.0087611497780924093,
0.15184,-9.9263206516636213,0.065817762223883941,-0.1082531686427031,-9.4631687868967429,0.076258857251218726,0.14600963714339898,-0.005556801840394897,-0.41526667644376763,0.0086425368056232132,
0.15325900000000001,-9.926320651653306,0.065817762223883941,-0.1083500114814273,-9.458570421611725,0.072531970021185818,0.14728060721529729,-0.0053039009831007192,-0.41456903967006203,0.0086345813676175567,
0.154691,-9.9263206516429907,0.065817762223883941,-0.1084468543201515,-9.4704543641717986,0.072398535301980649,0.14779385163140249,-0.0052402252407208272,-0.41524784069031939,0.0086994989261027344,
0.154888,-9.984259203030005,0.055704946291815834,-0.10056787918907678,-9.4704543641621814,0.072398535301980649,0.14770356544812741,-0.0052402301517225757,-0.41524781541653732,0.0086994989261022105,
0.15612400000000001,-9.9842592030196897,0.055704946291815834,-0.10066472202780098,-9.4885672107587258,0.075443748249720916,0.14725863002017858,-0.0054142236546315912,-0.41623683698924852,0.0086476164708406359,
0.15756500000000001,-9.9842592030093744,0.055704946291815834,-0.10076156486652518,-9.5118593263269293,0.077739685833460373,0.14755788486729904,-0.0056450519553649372,-0.41777007383266346,0.0088198032297514863,
0.158804,-10.01780461374881,0.057991889399608677,-0.093421898781401988,-9.5118593263173121,0.077739685833460373,0.14746759868402395,-0.0056450568663666857,-0.41777004855888139,0.0088198032297509624,
0.15898599999999999,-10.017804613738495,0.057991889399608677,-0.093518741620126189,-9.5260439035443181,0.078365496929716172,0.14729005073170101,-0.0057645215802136973,-0.41869132719701174,0.0086443409694907276,
0.16042200000000001,-10.017804613738495,0.057991889399608677,-0.093663822264470842,-9.5256746677251218,0.077066315502918994,0.147148165941999,-0.0057079513412200628,-0.41842125865395613,0.0085910768606456689,
0.161858,-10.017804613738495,0.057991889399608677,-0.093808902908815495,-9.5153757317918064,0.074859637148324942,0.14696259181299409,-0.0055877081209486775,-0.41774786241629402,0.0084654278104617751,
0.16272900000000001,-10.047906965420724,0.059887512855872078,-0.095563278678618663,-9.5153757317918064,0.074859637148324942,0.14682733372042336,-0.0055877154781400554,-0.41774782455417236,0.0084654278104617751,
0.163304,-10.047906965420724,0.059887512855872078,-0.095708359322963316,-9.4987802333234423,0.076339129951769877,0.14686058286291537,-0.0056000084240149968,-0.41633141594033246,0.0083710863013298983,
0.16475100000000001,-10.047906965420724,0.059887512855872078,-0.095853439967307968,-9.4974798877844293,0.080795944022173091,0.14670328468442395,-0.0057448909476786637,-0.41611484897478251,0.0084205854956117248,
0.166158,-10.047906965420724,0.059887512855872078,-0.095998520611652621,-9.5075246447906832,0.087868942274918593,0.14686221019648932,-0.006149478581059715,-0.41670757632388444,0.0084994929829958366,
0.16666300000000001,-10.040515511512863,0.061048674576188351,-0.095790982836034266,-9.5075246447906832,0.087868942274918593,0.14672695210391859,-0.0061494859382510928,-0.41670753846176278,0.0084994929829958366,
0.16758100000000001,-10.040515511512863,0.061048674576188351,-0.095936063480378919,-9.5231206249955527,0.091687663322286311,0.14679311245411741,-0.0064401394952466884,-0.41772285052733266,0.0085736183018629061,
0.169049,-10.040515511512863,0.061048674576188351,-0.096081144124723572,-9.5316667113561646,0.091241276981537112,0.14684557515119309,-0.0064271961430780291,-0.41842948588703566,0.0085576782784732748,
0.17044300000000001,-10.040515511512863,0.061048674576188351,-0.096287877724745216,-9.5240501901149202,0.090275939658002333,0.14702027328790282,-0.0064987024216943629,-0.41784994585584007,0.0085749622180078967,
0.17056199999999999,-10.080799409186181,0.078824952496975326,-0.096118316848097893,-9.5240501901149202,0.090275939658002333,0.14682753639639315,-0.0064987129053716746,-0.41784989190396554,0.0085749622180078967,
0.171898,-10.080799409186181,0.078824952496975326,-0.096325050448119537,-9.5102501477283941,0.091836903090976557,0.14587249065479913,-0.0064702708317510979,-0.41699187059363835,0.0082777165378093657,
0.173314,-10.080799409186181,0.078824952496975326,-0.096531784048141181,-9.4901039760799524,0.095382858551353214,0.14434379317112778,-0.0066211453346501203,-0.41546919358183354,0.0080784607719453505,
0.17449000000000001,-10.116957020779692,0.093563149638633214,-0.10275289052773651,-9.4901039760799524,0.095382858551353214,0.14415105627961811,-0.006621155818327432,-0.41546913962995902,0.0080784607719453505,
0.17476800000000001,-10.116957020779692,0.093563149638633214,-0.10295962412775815,-9.4802017412365505,0.10499482269642074,0.14323235600761505,-0.0072689538370362631,-0.41471625710489673,0.0082356553959353936,
0.176204,-10.116957020779692,0.093563149638633214,-0.10316635772777979,-9.4840005572757882,0.10872576335772484,0.14240957778143098,-0.0074098703566072089,-0.41498991073972952,0.0080975623458440834,
0.17762600000000001,-10.116957020779692,0.093563149638633214,-0.10337309132780144,-9.4925748893012649,0.10985245060466167,0.14191610837067734,-0.0073891576710683124,-0.41557981831494217,0.0080969107412994304,
0.17843000000000001,-10.053082129648956,0.1152284803575329,-0.10895911327478461,-9.4925748893012649,0.10985245060466167,0.14172337147916766,-0.0073891681547456241,-0.41557976436306765,0.0080969107412994304,
0.17904500000000001,-10.053082129648956,0.1152284803575329,-0.10916584687480625,-9.4950930209108204,0.11231745315273345,0.14322339848387461,-0.0076136388776844232,-0.41605755983480364,0.0082420395768512678,
0.18048800000000001,-10.053082129648956,0.1152284803575329,-0.10942867550443763,-9.4815852943929144,0.10780578015832619,0.14271741514535544,-0.0072954740461913786,-0.41508251735586393,0.0082747867260353821,
0.181924,-10.053082129648956,0.1152284803575329,-0.10969150413406902,-9.4624487643651634,0.10776444120600433,0.1429836613845844,-0.0071274140051092736,-0.413921806368102,0.0083172004732364208,
0.18237800000000001,-9.9974535994205596,0.11470336113137251,-0.11489589358677521,-9.4624487643651634,0.10776444120600433,0.14273862732592341,-0.0071274273334242695,-0.41392173777694297,0.0083172004732364208,
0.183339,-9.9974535994205596,0.11470336113137251,-0.11515872221640659,-9.4365358096401284,0.11277574546451705,0.1430249452750971,-0.0076535971089431668,-0.41214776599011527,0.0081038553799673597,
0.184779,-9.9974535994205596,0.11470336113137251,-0.11542155084603797,-9.4267109895487184,0.10893444316518162,0.14225928564476661,-0.0072405369131909661,-0.41136623685021534,0.0081073462422000531,
0.18621499999999999,-9.9974535994205596,0.11470336113137251,-0.11568437947566935,-9.430854347062688,0.10803845097785093,0.14210448492548947,-0.0072628438542420657,-0.41175210001801821,0.0082688119449810613,
0.186308,-10.0104761789283,0.11426838422970818,-0.11670052514866765,-9.430854347062688,0.10803845097785093,0.14185945086682847,-0.0072628571825570616,-0.41175203142685918,0.0082688119449810613,
0.18765899999999999,-10.0104761789283,0.11426838422970818,-0.11696335377829903,-9.4421838129018241,0.10719391813931664,0.14266771251151825,-0.0073877900725631508,-0.41247718794127691,0.0083981968198428899,
0.18906700000000001,-10.0104761789283,0.11426838422970818,-0.11722618240793041,-9.4546227742105486,0.10139387885796036,0.14165680474683723,-0.0068854417502245743,-0.41361097347896408,0.0084119801859617194,
0.19031300000000001,-9.9800683996102499,0.10649140244846074,-0.11357173423429527,-9.4546227742105486,0.10139291715941033,0.14137686391590534,-0.0068854147598421626,-0.41361089511652677,0.0084119799167582526,
0.19050300000000001,-9.9800683996102499,0.10649037091058636,-0.11387200459415367,-9.4502481060871624,0.10073408825263502,0.14089287964779298,-0.0069418639294096104,-0.41316138772842714,0.0085035364454775688,
0.19193099999999999,-9.9800683996102499,0.10648933937271197,-0.11417227495401207,-9.4419212529630876,0.10148866273245709,0.13972299968314617,-0.0070016762550181508,-0.41273204272170122,0.0083793530795471197,
0.19340399999999999,-9.9800683996102499,0.10648830783483759,-0.11447254531387047,-9.4292991086707492,0.10078909622941896,0.13881032054950074,-0.0069500846862700482,-0.41173494668052912,0.0082541656315185293,
0.19430500000000001,-9.9103482194520858,0.10334082518988354,-0.11100494937995502,-9.4292991086707492,0.10078813453086893,0.13853037971856885,-0.0069500576958876365,-0.41173486831809181,0.0082541653623150624,
0.19481499999999999,-9.9103482194520858,0.10333979365200915,-0.11130521973981342,-9.4278714942930453,0.10237724582898397,0.13889428090307887,-0.0071199567436605084,-0.4115791297908129,0.0084076609524605488,
0.19623199999999999,-9.9103482194520858,0.10333876211413477,-0.11160549009967181,-9.435429710913029,0.097994743709737694,0.13906893517420099,-0.0066506731343575131,-0.41206809736530237,0.0084362101143407569,
0.19766600000000001,-9.9103482194520858,0.10333773057626039,-0.11190576045953021,-9.4459338856628268,0.09696076583057181,0.140011160643257,-0.0066133558704424746,-0.4127777736955105,0.008330970025274699,
0.19822400000000001,-9.9109236923961568,0.10073731257770156,-0.11913018542185144,-9.4459338856628268,0.096959804132021779,0.13973121981232511,-0.0066133288800600629,-0.41277769533307318,0.0083309697560712322,
0.199105,-9.9109236923961568,0.10073628103982718,-0.11943045578170984,-9.4539365891641953,0.094206805872648777,0.14028130083155535,-0.0065944672432790546,-0.41350186801613575,0.0084536378047446875,
0.20053099999999999,-9.9109236923961568,0.10073628103982718,-0.11975190361412962,-9.4478027355978185,0.089025479243146341,0.13903822530980758,-0.0061081400551911214,-0.41296278319156199,0.0085514912432495122,
0.20197999999999999,-9.9109236923961568,0.10073628103982718,-0.12007335144654939,-9.4404336233042763,0.091402033266494084,0.13869596385216967,-0.0063202806361351994,-0.41254651422542438,0.0086569867393839119,
0.202152,-9.9427181314757309,0.092003067380075867,-0.11673854852435066,-9.4404336233042763,0.091402033266494084,0.1383962793500054,-0.006320296937091345,-0.41254643033623989,0.0086569867393839119,
0.203403,-9.9427181314757309,0.092003067380075867,-0.11705999635677043,-9.4329672627046151,0.092653520568284908,0.13739123000173814,-0.0064085278607032394,-0.41183603820893355,0.0086229852059628506,
0.20486199999999999,-9.9427181314757309,0.092003067380075867,-0.11738144418919021,-9.4396606162560488,0.088599952277274074,0.1375867798523788,-0.0061504462098236094,-0.41235703797092221,0.0088444214741288784,
0.20608000000000001,-9.9837862790310119,0.098754273308061913,-0.11423259918633613,-9.4396606162560488,0.088599952277274074,0.13728709535021452,-0.0061504625107797551,-0.41235695408173773,0.0088444214741288784,
0.206291,-9.9837862790310119,0.098754273308061913,-0.11455404701875591,-9.4519814479094642,0.0878957073768101,0.13772654685097943,-0.0061781227529061475,-0.41310446194006023,0.0087374625745367598,
0.207701,-9.9837862790310119,0.098754273308061913,-0.11487549485117568,-9.4669258572274568,0.084019075865274226,0.13900550243202106,-0.0058191009301007835,-0.41416260764562884,0.0087927601405211435,
0.20913899999999999,-9.9837862790310119,0.098754273308061913,-0.11519694268359545,-9.472443483560669,0.081551652553678161,0.13874000004947223,-0.0057286410196053222,-0.41459564671522081,0.0086594367890199669,
0.21001700000000001,-9.9576175747743019,0.10434514880386594,-0.11322071040533446,-9.472443483560669,0.08155069085512813,0.13840258811318978,-0.0057286171552903623,-0.4145955522651843,0.0086594365198165001,
0.210563,-9.9576175747743019,0.10434411726599156,-0.11358262546856686,-9.4663566337100029,0.081537119701549837,0.13830570831519562,-0.0058773906909737996,-0.41408313076449543,0.0086816053905640744,
0.21199200000000001,-9.9576175747743019,0.10434308572811718,-0.11394454053179925,-9.4567825691678209,0.080342840333945273,0.13768005335272651,-0.0058556286627040209,-0.41362590427794355,0.0086232644936111661,
0.21343899999999999,-9.9576175747743019,0.1043420541902428,-0.11430645559503165,-9.4458106351412034,0.083061354655925596,0.13900130881510411,-0.006049767868781546,-0.41268884750499307,0.0086289015915263344,
0.213951,-9.9895145842254625,0.092940926211181857,-0.11436043068260285,-9.4458106351412034,0.083060392957375564,0.13866389687882166,-0.0060497440044665861,-0.41268875305495656,0.0086289013223228676,
0.21487800000000001,-9.9895145842254625,0.092939894673307474,-0.11472234574583524,-9.4483414967884265,0.078590856629659575,0.14005049538095024,-0.0058882467877078952,-0.41288923280800233,0.008448693958794341,
0.21629000000000001,-9.9895145842254625,0.092938863135433092,-0.11508426080906764,-9.453641195444682,0.071171465151266308,0.1414327906887434,-0.0054803300850723539,-0.4131557928418873,0.0082261965631822836,
0.21777099999999999,-9.9895145842254625,0.092937831597558709,-0.11544617587230004,-9.4586347517435634,0.06870572331135763,0.14385806829779632,-0.0053002468664135683,-0.41368283446176674,0.008330760857007697,
0.21788099999999999,-9.9905731508956563,0.080619685577350636,-0.11542218309375667,-9.4586347517435634,0.068704761612807599,0.14352065636151387,-0.0053002230020986084,-0.41368274001173022,0.0083307605878042302,
0.21917700000000001,-9.9905731508956563,0.080618654039476254,-0.11578409815698906,-9.4534385185113301,0.065112715809513194,0.1442972991674881,-0.0050402175346924262,-0.41332825147953617,0.0085352597097913645,
0.220586,-9.9905731508956563,0.080618654039476254,-0.1161563904912379,-9.4407518399469357,0.064065503069270655,0.14367156564924663,-0.0050375118670548703,-0.41253707174897281,0.0085139263700782751,
0.22181799999999999,-9.9915229622092276,0.070414472325726118,-0.10592585533884971,-9.4407518399469357,0.064065503069270655,0.14332447902555076,-0.0050375307463889386,-0.41253697459074939,0.0085139263700782751,
0.222025,-9.9915229622092276,0.070414472325726118,-0.10629814767309854,-9.4253156764922217,0.067081791046337602,0.14358743732280124,-0.0053761933663076878,-0.41149549128913987,0.0084678634033391233,
0.223464,-9.9915229622092276,0.070414472325726118,-0.10667044000734738,-9.4149831689415038,0.067274642336535864,0.14400419479058149,-0.0053571708135126336,-0.41077883732374076,0.0082709807083468576,
0.22489799999999999,-9.9915229622092276,0.070414472325726118,-0.10704273234159621,-9.4162182988289498,0.067570135694224043,0.14476830029711374,-0.0052746511755644545,-0.41099626262066241,0.0084297224395533856,
0.22577,-9.9483135230876627,0.060722668959794036,-0.10514363432598642,-9.4162182988289498,0.067570135694224043,0.14442121367341787,-0.0052746700548985228,-0.410996165462439,0.0084297224395533856,
0.22634299999999999,-9.9483135230876627,0.060722668959794036,-0.10551592666023525,-9.4214955918281404,0.066366602698890401,0.14504193692838599,-0.0051615434643869744,-0.41130693794720286,0.008304545947695214,
0.22777600000000001,-9.9483135230876627,0.060722668959794036,-0.10588821899448408,-9.4255129353107101,0.066818549396575971,0.14554324814904693,-0.0050673850744669454,-0.4118030640849103,0.0084183950024324921,
0.229215,-9.9483135230876627,0.060722668959794036,-0.10626051132873292,-9.4196240173283758,0.072414765646242107,0.14449205914984004,-0.0054811419748647975,-0.41140725595366551,0.0083715211779881848,
0.22971,-9.9095448331541576,0.068733552721413807,-0.10441513729177838,-9.4196240173283758,0.072414765646242107,0.14414497252614417,-0.0054811608541988658,-0.4114071587954421,0.0083715211779881848,
0.23060700000000001,-9.9095448331438423,0.068732521183539425,-0.10480325341702047,-9.4083647053334616,0.076119070401757527,0.14375216960265005,-0.0056370044087773168,-0.41066364393271926,0.0084036795427990252,
0.23206399999999999,-9.909544833133527,0.068731489645665042,-0.10519136954226256,-9.3943967067533141,0.080329575976488488,0.14214685276537584,-0.0059216941378755026,-0.40977733490279689,0.0082425595495394469,
0.23350199999999999,-9.9095448331232117,0.06873045810779066,-0.10557948566750465,-9.3861043755730336,0.085301432607957528,0.14233688822892024,-0.006171558178599758,-0.40920145860617047,0.0085910905578571502,
0.23360500000000001,-9.9343028828593543,0.07535460987428716,-0.099372518613727118,-9.3861043755634164,0.085300470909407497,0.14197504914946671,-0.0061715356429680856,-0.40920135731794371,0.0085910902886531595,
0.23491200000000001,-9.934302882849039,0.075353578336412777,-0.099760634738969206,-9.3882329893891914,0.084178429910643934,0.14079468394598241,-0.0060693795729209604,-0.40935502281578745,0.0087040920275834009,
0.23633299999999999,-9.9343028828387236,0.075352546798538395,-0.10014875086421129,-9.3942890210168795,0.084449264815869618,0.14014681710276733,-0.0060533031482713252,-0.40972139303963989,0.0085519001380758557,
0.23754700000000001,-9.9065954978432131,0.088238949364398883,-0.10398235880808815,-9.3942890210072623,0.084448303117319587,0.1397849780233138,-0.0060532806126396528,-0.40972129175141314,0.008551899868871865,
0.23777799999999999,-9.9065954978328978,0.088237917826524501,-0.10437047493333024,-9.3969998515992508,0.088526550529995737,0.13876798926558714,-0.0062728431212244517,-0.41001818031111803,0.0087867165772116257,
0.23921700000000001,-9.9065954978225825,0.088236886288650118,-0.10475859105857233,-9.390582235817222,0.093408853841855571,0.13691325763521764,-0.0064410142516949905,-0.40967028655978199,0.0086853462264367808,
0.24065700000000001,-9.9065954978225825,0.088235854750775736,-0.10516041632216516,-9.3783410714123985,0.10029616405422447,0.13411462235369428,-0.0069255188861927618,-0.40889465996739394,0.0086480737495815228,
0.24150199999999999,-9.8817208009777495,0.098099359009047385,-0.10866470910401525,-9.3783410714123985,0.10029520235567443,0.1337400023005107,-0.0069254970457658495,-0.40889455510187528,0.008648073480378056,
0.24207100000000001,-9.8817208009777495,0.098098327471173002,-0.10906653436760809,-9.3677519264160267,0.104924662766542,0.13205081592577408,-0.0071013318511628136,-0.40816391997147294,0.0085010542256864635,
0.243501,-9.8817208009777495,0.09809729593329862,-0.10946835963120093,-9.3655421996749304,0.10679120191656279,0.12953404330853813,-0.0072473955499028223,-0.4080378206580984,0.0085185518980338236,
0.24493200000000001,-9.8817208009777495,0.098096264395424237,-0.10987018489479376,-9.3707016318232039,0.10787907869744552,0.12789699796129012,-0.0073094413220238024,-0.40831960322546579,0.0086890306888604794,
0.24543300000000001,-9.8805643506796024,0.10626478535366815,-0.11616592482565319,-9.3707016318232039,0.10787811699889549,0.12752237790810653,-0.0073094194815968901,-0.40831949835994713,0.0086890304196570126,
0.24640799999999999,-9.8805643506796024,0.10626375381579377,-0.11656775008924602,-9.3767314377407125,0.10583135929621482,0.12566886158505983,-0.0070488230389314458,-0.40881663750715524,0.0085803023491928254,
0.247835,-9.8805643506796024,0.10626272227791939,-0.11696957535283886,-9.3799170888756027,0.10775661852895803,0.123150697306701,-0.0071970818782808969,-0.40904816782195563,0.008482606918165372,
0.24923200000000001,-9.8805643506796024,0.106261690740045,-0.1173714006164317,-9.3769700464080064,0.11281391504153777,0.12130824538890887,-0.0076160013814315702,-0.40889414082948689,0.0086960454045008663,
0.24937500000000001,-9.8977353537992734,0.1015188677317328,-0.12659633983724961,-9.3769700464080064,0.11281295334298774,0.12093362533572528,-0.0076159795410046579,-0.40889403596396823,0.0086960451352973995,
0.25067299999999998,-9.8977353537992734,0.10151783619385842,-0.12701681530561154,-9.368819536955332,0.11123882484682002,0.11874694845781307,-0.0072684144649780048,-0.40848279954665251,0.0088590760241732871,
0.25210100000000002,-9.8977353537992734,0.10151680465598403,-0.12743729077397348,-9.3599122935533625,0.10981809252490812,0.1162881776181677,-0.0074632914685880559,-0.40786984346602007,0.0088605312010595193,
0.25332399999999999,-9.913146359413151,0.097998141741913777,-0.13599195073262119,-9.3599122935533625,0.10981713082635809,0.11589617005519935,-0.0074632705739325544,-0.40786973373330271,0.0088605309318560525,
0.25352400000000003,-9.913146359413151,0.097997110204039395,-0.13641242620098312,-9.3604824331997865,0.10330317102507622,0.11523812860464554,-0.0068811000239592515,-0.40774964559076199,0.0085292293361813667,
0.25495400000000001,-9.913146359413151,0.097996078666165012,-0.13683290166934506,-9.3711615366315666,0.099257537759118136,0.11254427241583022,-0.0067665785667670912,-0.40856815890650333,0.0083505892145346802,
0.25642100000000001,-9.913146359413151,0.09799504712829063,-0.13725337713770699,-9.3881446077156596,0.094769155392155122,0.11113460205176733,-0.0064004651817944893,-0.40952556528137141,0.0085077753469654082,
0.257276,-9.8910316645626377,0.095080054471298012,-0.14612129044960859,-9.3881446077156596,0.094768193693605091,0.11074259448879897,-0.0064004442871389879,-0.40952545554865405,0.0085077750777619414,
0.25787900000000002,-9.8910316645626377,0.095079022933423629,-0.14654176591797052,-9.4109464984788946,0.096889623481809045,0.10686976945500849,-0.0067033273643034887,-0.41090540863938108,0.0085577738114921663,
0.25927899999999998,-9.8910316645626377,0.095077991395549247,-0.14696224138633246,-9.4364448654400945,0.10087450949701833,0.10370838540544315,-0.0071015487207795134,-0.41242087648790721,0.0084338770994495348,
0.26069599999999998,-9.8910316645523224,0.095075928319800482,-0.14746388857003076,-9.4568620539454802,0.099824597086937417,0.10147471807846918,-0.0070981793451522762,-0.41369371733719551,0.0086019296187292218,
0.261243,-9.9551869530104398,0.082365370328827264,-0.15751594088245183,-9.456862053935863,0.099822673689837355,0.10100703445659798,-0.0070981203493926982,-0.41369358642043513,0.0086019290803217643,
0.262125,-9.9551869530001245,0.082363307253078499,-0.15801758806615013,-9.467359880764171,0.098039576066635908,0.097826938467345678,-0.0070708180547767122,-0.41413663188014421,0.0083827410921580997,
0.26359199999999999,-9.9551869529898092,0.082361244177329734,-0.15851923524984843,-9.4784949665877019,0.095985067435498769,0.097075276169834898,-0.0068586342220609423,-0.4146825897037687,0.0083438607834030783,
0.26504,-9.9551869529794939,0.082359181101580969,-0.15902088243354673,-9.4974276616107485,0.092743964113718519,0.096243963196225565,-0.0065637021760707901,-0.41570708579855298,0.0082350637859591579,
0.26522000000000001,-10.012783693810954,0.072649749212307463,-0.16828584596246365,-9.4974276616011313,0.092742040716618457,0.095776279574354362,-0.0065636431803112122,-0.4157069548817926,0.0082350632475517004,
0.26643,-10.012783693800639,0.072647686136558698,-0.16878749314616195,-9.521327707490201,0.092127031793628078,0.09523795235002834,-0.0066293979086814976,-0.41714022261019951,0.0081781498323907909,
0.26786300000000002,-10.012783693790324,0.072645623060809933,-0.16928914032986025,-9.5435926705838483,0.091700497035670209,0.09562303533776724,-0.0067523306220582339,-0.41837291394291265,0.0082661807144738565,
0.26909699999999998,-10.047869804433196,0.064631669354265509,-0.17816886774026808,-9.5435926705742311,0.091698573638570147,0.095155351715896036,-0.006752271626298656,-0.41837278302615227,0.008266180176066399,
0.26929599999999998,-10.047869804422881,0.064629606278516744,-0.17867051492396638,-9.5560624258158455,0.091617418419272803,0.0955109516090034,-0.0067461555548773882,-0.41919053827999841,0.0083210805404819368,
0.27073000000000003,-10.047869804412565,0.064627543202767784,-0.17923372428800871,-9.5607072313237396,0.087710582560380598,0.096690616163852341,-0.0064723774071065027,-0.4193518500850279,0.0083197191021067134,
0.27215800000000001,-10.04786980440225,0.064625480127018825,-0.17979693365205104,-9.5603155246253557,0.081876765164898085,0.096523509209778591,-0.006029573132904812,-0.41916268072337892,0.0081670198395325886,
0.273036,-10.108392131238549,0.061685322041056055,-0.17391688302297009,-9.5603155246157385,0.081874841767797843,0.095998431418440847,-0.0060295172590278485,-0.41916253374055562,0.0081670193011251311,
0.273586,-10.108392131228234,0.061683258965307096,-0.17448009238701243,-9.5613826128575123,0.081265167353346629,0.096760284957537815,-0.0060583429424851259,-0.41896843244313536,0.0084175413482089866,
0.27503100000000003,-10.108392131217919,0.061681195889558137,-0.17504330175105476,-9.5749667357955701,0.078834462141163408,0.096788745584082084,-0.0059522544545145993,-0.41975433411442603,0.0084386120582641052,
0.27646300000000001,-10.108392131207603,0.061679132813809177,-0.17560651111509709,-9.5948552084821888,0.080727078343666145,0.096712290547987037,-0.0061024359549482566,-0.4210149039129894,0.0085478722815568921,
0.27696300000000001,-10.162681392330981,0.067051772408929733,-0.17001455754290529,-9.5948552084725716,0.080725154946565902,0.096187212756649293,-0.006102380081071293,-0.4210147569301661,0.0085478717431494346,
0.27787099999999998,-10.162681392320666,0.067049709333180774,-0.17057776690694762,-9.6142465016555292,0.084570052549442026,0.097388306003310804,-0.0066163530141002194,-0.42213482441011585,0.0085420799181691112,
0.27930899999999997,-10.162681392310351,0.067047646257431814,-0.17114097627098995,-9.6212498739374812,0.080591532218944523,0.098685144968889638,-0.006424278087508139,-0.42257954954799587,0.0084540289700496766,
0.280781,-10.162681392300035,0.067044551643808653,-0.17180215078696384,-9.6180711970588835,0.07460119608226759,0.10049869240901245,-0.0059767351853883439,-0.42229350994550452,0.0084807063442930916,
0.28088999999999997,-10.183837682649292,0.071494958307544834,-0.16984013051629632,-9.6180711970492663,0.074598310986617497,0.09988228210637716,-0.0059766420620200643,-0.42229333739642794,0.0084807055366821673,
0.28220899999999999,-10.183837682638977,0.071491863693921673,-0.17050130503227021,-9.6129656128219896,0.069295298583149881,0.10164079106342282,-0.0056872248687242213,-0.42184550236907487,0.0083439568141836472,
0.28360800000000003,-10.183837682628662,0.071488769080298512,-0.1711624795482441,-9.6058863406230479,0.063655225569204527,0.10273710542005134,-0.0053569185907261655,-0.42101282276032387,0.0086112283938768446,
0.28480899999999998,-10.174039598491001,0.07065869520038659,-0.19725762331649729,-9.6058863406134307,0.063652340473554433,0.10212069511741605,-0.0053568254673578859,-0.42101265021124729,0.0086112275862659203,
0.28504099999999999,-10.174039598480686,0.070655600586763428,-0.19791879783247118,-9.6160518648839197,0.060875893608757239,0.10404142778570956,-0.0052617364945039538,-0.42165254661639756,0.0085310945059704942,
0.28653699999999999,-10.174039598470371,0.070652505973140267,-0.19857997234844507,-9.6315419833268692,0.061117638983492005,0.10424902827710641,-0.0053052449921038988,-0.42253576853344815,0.0084311844808790601,
0.28796699999999997,-10.174039598460055,0.070649411359517106,-0.19924114686441896,-9.6540655886155822,0.061307332127589133,0.10557018101156175,-0.0052769085970781207,-0.42397758101820548,0.008702374469328783,
0.28871200000000002,-10.165253285873527,0.06996383761760587,-0.18148798719316844,-9.654065588605965,0.06130444703193904,0.10495377070892646,-0.0052768154737098411,-0.4239774084691289,0.0087023736617178587,
0.28936499999999998,-10.165253285863212,0.069960743003982709,-0.18214916170914233,-9.6700980785008195,0.060351689322492859,0.10516066268922607,-0.0053146141726705979,-0.42511754755841574,0.0085135872132292584,
0.29077399999999998,-10.165253285852897,0.069956616852485165,-0.18289019788735206,-9.6722768180310812,0.057038031356415657,0.10461531938683924,-0.0049855236957164631,-0.42489234614614307,0.0087105710376629338,
0.292209,-10.165253285842581,0.069952490700987621,-0.18363123406556178,-9.6709588885154236,0.057309304919856349,0.10467587867093117,-0.0050142023024100915,-0.42480873826386845,0.0085716158488479775,
0.29267599999999999,-10.219830327005935,0.063220911390086773,-0.18372013532390014,-9.6709588885058064,0.057305458125656225,0.10398501366655158,-0.0050140710115035708,-0.42480854487305941,0.0085716147720335846,
0.293653,-10.21983032699562,0.063216785238589229,-0.18446117150210986,-9.6669374783273145,0.062885372629662484,0.10372646562673921,-0.0054098124859215495,-0.42425061334960223,0.008283459205836249,
0.29511100000000001,-10.219830326985305,0.063212659087091685,-0.18520220768031959,-9.6758442414156143,0.067349152494086545,0.10216945476621635,-0.0056287821117666243,-0.42470990135395564,0.0086153979197038967,
0.29653200000000002,-10.219830326974989,0.063208532935594142,-0.18594324385852931,-9.6915535146716234,0.075698796637142116,0.10099483617789803,-0.0062368107903201953,-0.4255388923739109,0.0084420423563399839,
0.29657299999999998,-10.207573271411921,0.060513951034627908,-0.18587449422935037,-9.6915535146620062,0.075694949842941991,0.10030397117351844,-0.0062366794994136747,-0.42553869898310187,0.008442041279525591,
0.29796,-10.207573271401605,0.060509824883130364,-0.1866155304075601,-9.7097578352091123,0.08345413833217713,0.09973053411564721,-0.0067152827117240195,-0.42669980255672896,0.0085538857472537404,
0.29941000000000001,-10.20757327139129,0.06050569873163282,-0.18735656658576982,-9.7153277764815336,0.086224914318236881,0.099245563851579871,-0.006727624069553002,-0.42701934996473667,0.0084066077173151899,
0.30056500000000003,-10.196556860825988,0.058267735653866982,-0.18415584465587209,-9.7153277764622992,0.086220105825486545,0.098475175994097261,-0.0067274548867838598,-0.42701913431307076,0.0084066063712968063,
0.30083599999999999,-10.196556860805357,0.058262577964494869,-0.18498217870091577,-9.7090116648854892,0.089974914635752898,0.09758474660254958,-0.0068334350796237725,-0.42658359668013973,0.0080261121053209639,
0.302257,-10.196556860784726,0.058257420275122755,-0.18580851274595944,-9.6940806575854612,0.092109358738337185,0.097483791200070474,-0.0068978558315291828,-0.42556429488361147,0.0081065958930237464,
0.30369600000000002,-10.196556860764096,0.058252262585750642,-0.18663484679100312,-9.6763269032962214,0.095705540231805497,0.096194997839137986,-0.0070857347956206403,-0.42424971052147631,0.0082851233984696342,
0.30451299999999998,-10.242057052475948,0.076974275259525229,-0.19036730487962814,-9.676326903276987,0.095700731739055162,0.095424609981655376,-0.0070855656128514981,-0.4242494948698104,0.0082851220524512506,
0.30513200000000001,-10.242057052455317,0.076969117570153109,-0.19119363892467181,-9.6679272202554163,0.10018576445883538,0.093933443641240885,-0.0072983999647699442,-0.42351845577241354,0.0082580974743619185,
0.30657000000000001,-10.242057052434687,0.076963959880780988,-0.19201997296971549,-9.6713071411117166,0.1026394521019738,0.092389131313180051,-0.0073799722977734598,-0.42380214870715122,0.008008281229773706,
0.30800899999999998,-10.242057052414056,0.076958802191408868,-0.19284630701475916,-9.6755725424289309,0.10613195225763751,0.09155317434774278,-0.007591520713415973,-0.42413812508915977,0.0082167567470734122,
0.30846000000000001,-10.201888008219683,0.083003793023655625,-0.19615396282958278,-9.6755725424096966,0.10612714376488717,0.09078278649026017,-0.0075913515306468308,-0.42413790943749385,0.0082167554010550287,
0.30939699999999998,-10.201888008199052,0.082998635334283505,-0.19698029687462645,-9.6769415674951027,0.10803925132518463,0.088416387612833727,-0.0078311102139457106,-0.42441233392777516,0.0084676217054962949,
0.310832,-10.201888008178422,0.082992446107037196,-0.19789087661787219,-9.6656570543580518,0.10690445668283262,0.086052847525858026,-0.0076794521898099688,-0.42364067819053486,0.0081696568389690756,
0.31228400000000001,-10.201888008157791,0.082986256879790887,-0.19880145636111793,-9.6498513064223683,0.10780086615554245,0.083845234291326717,-0.0077265316297090618,-0.42267567296706965,0.0081559986928641786,
0.31240299999999999,-10.165847439192804,0.087994304260131745,-0.19833729052101057,-9.6498513064031339,0.10779509596424226,0.082996304513262134,-0.007726324501720741,-0.42267543532955654,0.0081559970776423282,
0.31371199999999999,-10.165847439172174,0.087988115032885436,-0.1992478702642563,-9.6336656182059546,0.10843119432598004,0.080975144565168231,-0.0076196332115458778,-0.42158681532932096,0.0081884664473033299,
0.31512000000000001,-10.165847439151543,0.087981925805639127,-0.20015845000750204,-9.6283989240318171,0.10565677823130391,0.078277381577599461,-0.0074005275886888941,-0.42112372848910329,0.0083167048249098586,
0.31634699999999999,-10.14705403427341,0.097480213229473353,-0.20370010577633807,-9.6283989240125827,0.10565100804000373,0.077428451799534878,-0.0074003204607005733,-0.42112349085159018,0.0083167032096880082,
0.31656800000000002,-10.147054034252779,0.097474024002227044,-0.20461068551958381,-9.6333634454862302,0.1032244283254985,0.0762669841963909,-0.0072114624420277166,-0.4215825883467928,0.0083123462928003013,
0.31805099999999997,-10.147054034232148,0.097467834774980736,-0.20552126526282954,-9.6396913822264896,0.10290303750809401,0.073938906995818787,-0.0070197988580141353,-0.42191604479481626,0.0081545401951955039,
0.31944800000000001,-10.147054034211518,0.097461645547734427,-0.20643184500607528,-9.6426899321108852,0.10153679871689773,0.071526921822755704,-0.0069279426237084567,-0.42239176135613515,0.0081581144223942439,
0.32026399999999999,-10.165883332983226,0.086414702422633438,-0.20961914847737168,-9.6426899320820336,0.10152910512849748,0.070601979391295755,-0.0069276551955179374,-0.42239150244035784,0.008158112268764936,
0.320855,-10.16588333295228,0.086406450119638351,-0.21061126097420979,-9.6315616925111431,0.096989715891376685,0.067832089510002108,-0.006897848359369782,-0.42164228391516739,0.0081160722931287958,
0.322295,-10.165883332921334,0.086398197816643263,-0.21160337347104791,-9.6183168286289078,0.093141728460219314,0.06486874710294957,-0.0068241264727800901,-0.4208337526772189,0.0083657100314021536,
0.32372800000000002,-10.165883332890388,0.086389945513648175,-0.21259548596788602,-9.6030951835257881,0.093268785847204189,0.061898667466421302,-0.006818234741046432,-0.41977766273340089,0.0082070596927629625,
0.32419900000000001,-10.182777013087367,0.077243403241604836,-0.21732750930573,-9.6030951834969365,0.09326109225880394,0.060973725034961346,-0.0068179473128559126,-0.41977740381762357,0.0082070575391336546,
0.32516299999999998,-10.182777013056421,0.077235150938609748,-0.21831962180256811,-9.5959626999500856,0.094063568681745952,0.058386102527346537,-0.0068280951992108979,-0.41926476997843598,0.0083127583598955005,
0.32657999999999998,-10.182777013025476,0.07722689863561466,-0.21931173429940623,-9.5965379095528309,0.093820865821644561,0.055243165855287407,-0.0069558745555345185,-0.41946908672285843,0.0085054483655382634,
0.328011,-10.18277701299453,0.077218646332619573,-0.22030384679624435,-9.5990759527372607,0.10027087219846549,0.053438974561398268,-0.0073468471611021673,-0.41959493143785281,0.0087217357614487127,
0.32815699999999998,-10.141074044560037,0.066760472159513404,-0.2258209478819716,-9.5990759527084091,0.10026317861006524,0.052514032129938312,-0.0073465597329116479,-0.4195946725220755,0.0087217336078194048,
0.32945799999999997,-10.141074044529091,0.066752219856518316,-0.22681306037880972,-9.5953090848060967,0.10466820442163632,0.049928082522960902,-0.0076894181036203952,-0.41953280630699347,0.0085670096389502317,
0.330872,-10.141074044498145,0.066742936015648652,-0.22783455107431066,-9.5813361686596608,0.10470837878891152,0.047707527912686246,-0.0076743274948256222,-0.41862026547643361,0.0083598546355960549,
0.33213799999999999,-10.080214085709891,0.089376347795083383,-0.23286620051592419,-9.5813361686308092,0.10469972350196106,0.046755196306521078,-0.0076739993390275594,-0.41861999889374152,0.0083598522127632802,
0.33233000000000001,-10.080214085678945,0.089367063954213719,-0.23388769121142514,-9.5659243828113407,0.10487925136174149,0.044721841525995711,-0.007584828811547077,-0.41781651163606692,0.0082328635158910625,
0.33374500000000001,-10.080214085647999,0.089357780113344054,-0.23490918190692608,-9.5540192241889628,0.10259201357183494,0.04403437658257664,-0.0073883212578008837,-0.41697557377244759,0.0081164750397034243,
0.33518399999999998,-10.080214085617053,0.08934849627247439,-0.23593067260242703,-9.5562767086626472,0.10080655528051868,0.042636399720344408,-0.0071155944047417933,-0.41721306876674563,0.0078413720430468518,
0.33604200000000001,-10.088688037137157,0.10805980019624217,-0.24663487117986999,-9.5562767086337956,0.10079789999356822,0.04168406811417924,-0.0071152662489437305,-0.41721280218405354,0.0078413696202140771,
0.33659600000000001,-10.088688037106211,0.10805051635537251,-0.24765636187537093,-9.5614473056283078,0.10120266631428027,0.04060969643908454,-0.0071978441306594374,-0.41761085358780481,0.0079570799952505423,
0.33803699999999998,-10.088688037075265,0.10804123251450284,-0.24867785257087188,-9.5648141205416124,0.10057039856796192,0.039712425270634136,-0.0072151209804327369,-0.41805386379044518,0.0083260836257881034,
0.33947699999999997,-10.088688037044319,0.10803194867363318,-0.24969934326637283,-9.5549446690185746,0.097470045021982699,0.038903893136252705,-0.0070074477485076968,-0.41744960353066046,0.0085531169916668141,
0.33999800000000002,-10.077574001633797,0.094335090748510153,-0.24552555292874439,-9.5549446689897231,0.097461389735032239,0.037951561530087538,-0.007007119592709634,-0.41744933694796837,0.0085531145688340394,
0.34091399999999999,-10.077574001592536,0.094324775369766301,-0.24662391382664545,-9.540531538826956,0.092948349127210381,0.036417819241472069,-0.0066639887735576945,-0.4165237819397471,0.0085012580455299715,
0.342358,-10.077574001551275,0.094314459991022448,-0.2477222747245465,-9.5276901968543264,0.084762480846197738,0.03529800343747895,-0.0062891722005324916,-0.41577323081858353,0.0082849915015089717,
0.34376400000000001,-10.077574001510014,0.094304144612278595,-0.24882063562244755,-9.5237724011597216,0.082606808364976317,0.034494360413828237,-0.0062280478450247589,-0.41554319916687543,0.0083558660676218786,
0.343918,-10.103545624758022,0.083385617925801278,-0.24478046068534731,-9.5237724011212528,0.082597191379476007,0.033470363031713891,-0.0062276813699884024,-0.4155429125227188,0.0083558633755851132,
0.34522900000000001,-10.103545624716761,0.083375302547057425,-0.24587882158324836,-9.5255808644907987,0.081272570425586721,0.033504036822568146,-0.0061130969805990787,-0.41582053256149337,0.0083243168656152028,
0.34664499999999998,-10.103545624675499,0.083364987168313573,-0.24697718248114942,-9.5251932958846499,0.076820484131903219,0.032756667148518721,-0.0058254763545979296,-0.41572300620846964,0.0083287997956248104,
0.34791,-10.063793785391129,0.074305872308625842,-0.24732430384333617,-9.5251932958461811,0.076810867146402909,0.031732669766404376,-0.0058251098795615731,-0.415722719564313,0.008328797103588045,
0.34808,-10.063793785349867,0.07429555692988199,-0.24842266474123725,-9.5243666443436172,0.075792061474197578,0.031899950602915228,-0.0057626630901059734,-0.41579743429376126,0.0081869408775881378,
0.34949799999999998,-10.063793785308606,0.074285241551138137,-0.24952102563913831,-9.5162134804774521,0.070087071427433256,0.031678368890457942,-0.0054661622162665933,-0.41520787690130245,0.0083573897527084318,
0.35093800000000003,-10.06379378525703,0.074272863096645325,-0.25063735592681136,-9.5075591112899644,0.064007046357957606,0.031068591231279905,-0.0049686072546477802,-0.41477613627269516,0.0084618605926785502,
0.35180099999999997,-10.06976945712573,0.061450426785276999,-0.24550630755172892,-9.5075591112418802,0.063995505975357053,0.030027841060423822,-0.0049681572560444859,-0.41477584493859193,0.0084618573622343273,
0.35237200000000002,-10.069769457074154,0.06143804833078418,-0.246622637839402,-9.5010156359418598,0.064150522443524954,0.029953275499269974,-0.0051188892033380597,-0.41431060049748497,0.0088195255607450909,
0.35380899999999998,-10.069769457022577,0.061425669876291361,-0.24773896812707508,-9.506934748953249,0.064966896544633432,0.029142492117996525,-0.0051687018378594098,-0.4147941242884764,0.0088053491657160265,
0.35522399999999998,-10.069769456971001,0.061413291421798542,-0.24885529841474816,-9.5130104774635793,0.067136492025411845,0.02791877831522022,-0.0053504969491752008,-0.41511481908155268,0.0085374141076068211,
0.355744,-10.055686021452791,0.067236798814829191,-0.24384580734994746,-9.5130104774154951,0.067124951642811292,0.026878028144364137,-0.0053500469505719066,-0.41511452774744945,0.0085374108771625982,
0.35666500000000001,-10.055686021401215,0.067224420360336379,-0.24496213763762054,-9.5199496342589836,0.069924502865227445,0.026904950982005113,-0.0054569307819905327,-0.41576336052918972,0.0086168132211463314,
0.35809800000000003,-10.055686021349638,0.067212041905843567,-0.24607846792529361,-9.5188803858853426,0.070612200907979539,0.026113741378312069,-0.0054662216106021941,-0.41566213231717686,0.0086786350281818896,
0.35956100000000002,-10.055686021298062,0.067199663451350755,-0.24719479821296669,-9.5112391830001854,0.072442664414940641,0.025281485624487753,-0.0056639631791171562,-0.41518590112079989,0.0085817589820935819,
0.35964600000000002,-10.043060683102432,0.072023902384439037,-0.24901925794891516,-9.5112391829521012,0.072431124032340088,0.02424073545363167,-0.0056635131805138619,-0.41518560978669666,0.008581755751649359,
0.36096299999999998,-10.043060683050856,0.072010492392071829,-0.25015229915015347,-9.5034241897647487,0.074351351854802961,0.023158769192439116,-0.0058298183807310496,-0.41477815904304949,0.0084281155609276723,
0.362396,-10.043060682999279,0.071997082399704621,-0.25128534035139177,-9.4960110294798294,0.07920780928628797,0.021705907991135726,-0.0061122924213304333,-0.41420229717145474,0.008506386735587821,
0.36358600000000002,-10.039113662470497,0.067374074795256714,-0.25071577711219611,-9.4960110294317452,0.079195307205137386,0.020649578303768953,-0.0061118010527483127,-0.41420200147625535,0.0085063832359401296,
0.36382500000000001,-10.03911366241892,0.067360664802889506,-0.25184881831343442,-9.4946199426256186,0.085669581401840722,0.018736028197695587,-0.0065650828214344585,-0.41414111833785439,0.0085313891435023579,
0.36525999999999997,-10.039113662367344,0.067347254810522297,-0.25298185951467272,-9.4994944882358148,0.087220114257522324,0.016494101395425464,-0.0066602205195640495,-0.41429465323932402,0.0083541836645111521,
0.36667300000000003,-10.039113662315767,0.067333844818155089,-0.25411490071591103,-9.5098926592038016,0.087341971378339073,0.013427198999161422,-0.0067676671635278239,-0.41499634759566933,0.0083345358660825552,
0.36751499999999998,-10.035572320781226,0.085280104893467656,-0.25335196914939229,-9.5098926591557174,0.087329469297188489,0.012370869311794649,-0.0067671757949457033,-0.41499605190046995,0.0083345323664348638,
0.36811300000000002,-10.035572320729649,0.085266694901100448,-0.25448501035063059,-9.5211948691090651,0.088591628470001293,0.0095072804239354908,-0.0067691034491756197,-0.41562137334939914,0.0082978429772020725,
0.36957000000000001,-10.035572320678073,0.08525328490873324,-0.2556180515518689,-9.5348205705436122,0.089109864909014916,0.005801251203123305,-0.006757835213749187,-0.41641082804544449,0.0083019115474520441,
0.37100899999999998,-10.035572320626496,0.085237811840617267,-0.25681422287102035,-9.5468659503047579,0.09362267362843843,0.0023376148951561614,-0.0070672334115216371,-0.41716101024843849,0.0083378728417239922,
0.37144100000000002,-10.040009165138049,0.10010974659625005,-0.26558971569473233,-9.5468659502566737,0.093608248150187784,0.0012224292565267815,-0.0070666608095203949,-0.41716069807798689,0.0083378688036693672,
0.37240400000000001,-10.040009165086472,0.10009427352813408,-0.26678588701388378,-9.5559789216713718,0.095442322588344175,-0.0020299213983658304,-0.0072390698585955851,-0.4176617406445956,0.0084336526356410708,
0.37387900000000002,-10.040009165034895,0.1000788004600181,-0.26798205833303523,-9.5619287077745145,0.095037684948754142,-0.0044495862618370071,-0.0071096143172375472,-0.4178588075715981,0.0084753923069772735,
0.37529200000000001,-10.040009164983319,0.10006332739190213,-0.26917822965218668,-9.5729555197956007,0.094551789152736918,-0.0061740339632874192,-0.0071631576233731186,-0.41848964968755498,0.0083450126883442711,
0.37542999999999999,-10.085365290043594,0.10871574258020468,-0.28383586469829203,-9.5729555197475165,0.094537363674486272,-0.0072892196019167989,-0.0071625850213718764,-0.41848933751710338,0.008345008650289646,
0.37675199999999998,-10.085365289992017,0.10870026951208871,-0.28503203601744348,-9.5886540278439512,0.089690434922743534,-0.0087792546223371577,-0.0067921799157413427,-0.41944727503076867,0.0082738344880591303,
0.37817499999999998,-10.085365289940441,0.10868479644397273,-0.28622820733659493,-9.6020478328186289,0.087796567378715648,-0.010897863624813575,-0.0066340164516689578,-0.42017342263706092,0.0084309314103612511,
0.37932700000000003,-10.126015304707128,0.10968016369902139,-0.29971005049264166,-9.6020478327705447,0.087782141900465002,-0.012013049263442955,-0.0066334438496677157,-0.42017311046660932,0.008430927372306626,
0.37960500000000003,-10.126015304655551,0.10966469063090542,-0.30090622181179311,-9.6134241250498267,0.091499618900157481,-0.014237740025739109,-0.0067553037272306306,-0.4209727993178744,0.0084493235201200997,
0.381054,-10.126015304583344,0.10964612294916629,-0.30218357516165967,-9.6200530580442063,0.094454588821203278,-0.01703451838236901,-0.0068576120211672779,-0.42130109778324532,0.0085563073983439056,
0.38248599999999999,-10.126015304511137,0.10962755526742715,-0.30346092851152623,-9.6248983337717942,0.096268869683594896,-0.019669615451228074,-0.0070178272223110584,-0.42143726514911206,0.008595487221306668,
0.38326100000000002,-10.165936586194844,0.11045871396700271,-0.3061737591939564,-9.6248983337044756,0.096251559109694157,-0.020860486765745805,-0.0070171320849153436,-0.42143693179150327,0.0085954823756405948,
0.38387100000000002,-10.165936586122637,0.11044014628526358,-0.30745111254382296,-9.6331389577568931,0.095972294851361675,-0.02262553098375163,-0.0069654510159682971,-0.42175111085509859,0.0085805747550163677,
0.385299,-10.16593658605043,0.11042157860352445,-0.30872846589368952,-9.6492598743856437,0.094237052254503101,-0.024175792583439187,-0.0067906149931712696,-0.42280308409414136,0.0085560647334942518,
0.38673800000000003,-10.165936585978223,0.11040301092178531,-0.31000581924355608,-9.6691034616692182,0.094252823390792703,-0.025955781467045008,-0.0067957238185110801,-0.42385301144663257,0.0085614595294733337,
0.387179,-10.181331313270549,0.11479661852169921,-0.31751168257569912,-9.6691034616018996,0.094235512816891964,-0.027146652781562738,-0.0067950286811153653,-0.42385267808902377,0.0085614546838072604,
0.38817800000000002,-10.181331313198342,0.11477805083996008,-0.31878903592556568,-9.69105947106552,0.098316891872355108,-0.02784172317934424,-0.0070758291924939293,-0.42527076659761931,0.0085075594209079904,
0.38959700000000003,-10.181331313126135,0.11475948315822095,-0.32006638927543224,-9.7026936736345704,0.10264034625357132,-0.028320750893813966,-0.0074029786333712471,-0.42594312584048899,0.0084396888026551358,
0.39104299999999997,-10.181331313053928,0.11473782086285847,-0.3214369936491443,-9.7042446868532739,0.10735501201227655,-0.028277884007078886,-0.0077555732133925501,-0.42592285649819639,0.0084040279207933388,
0.39112999999999998,-10.195152231834189,0.1204436187661771,-0.32824964722298228,-9.7042446867859553,0.10733481634272554,-0.029555692870520466,-0.0077547561526336338,-0.42592249880459415,0.0084040222675168634,
0.39247100000000001,-10.195152231761982,0.12042195647081462,-0.32962025159669434,-9.7003727526553636,0.10555602232573046,-0.028841598126036309,-0.0076867009533882636,-0.42561541302245587,0.0083308449161129759,
0.39391100000000001,-10.195152231689775,0.12040029417545214,-0.33099085597040639,-9.6938322926369977,0.10105045392452293,-0.028004680545217722,-0.0073444938888656665,-0.42478889046561313,0.0084008881089032532,
0.39504899999999998,-10.254766578115872,0.12513163316064982,-0.33420059161019056,-9.6938322925696792,0.10103025825497192,-0.029282489408659303,-0.0073436768281067502,-0.4247885327720109,0.0084008824556267778,
0.395339,-10.254766578043665,0.12510997086528736,-0.33557119598390261,-9.7022684725634445,0.097993005582222709,-0.028769260058673623,-0.0072482355360490372,-0.42531358929162,0.0083325346859690255,
0.39679700000000001,-10.254766577971457,0.12508830856992489,-0.33694180035761467,-9.7194122675984982,0.098343793294632179,-0.028627890074199445,-0.0072762777001742504,-0.42619580586966693,0.0082838247762966402,
0.398206,-10.25476657789925,0.12506664627456243,-0.33831240473132673,-9.741211400469787,0.098259993077460153,-0.029200520480556148,-0.0073090339699447846,-0.42755525839303921,0.0086183864946266335,
0.39895000000000003,-10.251949820995385,0.11217060032228833,-0.3269423125032424,-9.7412114004024684,0.098239797407909141,-0.030478329343997728,-0.0073082169091858683,-0.42755490069943697,0.0086183808413501581,
0.39964100000000002,-10.251949820923178,0.11214893802692585,-0.32831291687695446,-9.7586443737426709,0.099310675108628399,-0.029779063903588185,-0.0075035030004679615,-0.42853807933834953,0.0085744116850306473,
0.40107399999999999,-10.25194982083034,0.11212418111794041,-0.32976109289882122,-9.764730928131387,0.096700103364044082,-0.029212307072790659,-0.0073919120248855177,-0.42891862862801189,0.0083093148179382813,
0.40252700000000002,-10.251949820737503,0.11209942420895497,-0.33120926892068797,-9.7628358025653128,0.089352372006314393,-0.027997513155480085,-0.0069421869594605183,-0.42865532177660248,0.0083694635093365301,
0.40288600000000002,-10.249421438407216,0.11496440121062337,-0.32039549913730642,-9.7628358024787598,0.089329291241113454,-0.029347641749884867,-0.0069412471802208576,-0.42865494383805514,0.0083694570484486065,
0.40395500000000001,-10.249421438314378,0.11493964430163793,-0.32184367515917317,-9.7586589371152996,0.082569444798867325,-0.02671213828810827,-0.006402134848758307,-0.42824631252451889,0.0083555785691179687,
0.40540300000000001,-10.249421438221541,0.11491488739265249,-0.32329185118103992,-9.7591852080573993,0.080459569479917656,-0.025312670565103005,-0.0063752412020913699,-0.42811386095785953,0.0082297946966072098,
0.406831,-10.290186402538,0.11729893950086942,-0.31776553407449015,-9.7591852079708463,0.080436488714716717,-0.026662799159507786,-0.0063743014228517091,-0.42811348301931218,0.0082297882357192861,
0.40683599999999998,-10.290186402445162,0.11727418259188398,-0.31921371009635691,-9.7663785616083327,0.079043677651165933,-0.025356392322595758,-0.0062126040825775577,-0.42863386598859371,0.0080411856865005293,
0.408271,-10.290186402352324,0.11724942568289853,-0.32066188611822366,-9.7718855279895998,0.078900148814399343,-0.024587872381327543,-0.0062531483206291066,-0.42890784763698864,0.0081948941462934386,
0.40966799999999998,-10.290186402259486,0.11722466877391309,-0.32211006214009041,-9.7701724288424554,0.076406393642823089,-0.02397673550491734,-0.006172568381647453,-0.42878890648062401,0.0083828886533991471,
0.410802,-10.306366832789973,0.10686959848354977,-0.31119397990396569,-9.7701724287462852,0.07637946608342186,-0.025432266260406792,-0.006171465465996861,-0.42878849903695448,0.0083828811156968306,
0.41111900000000001,-10.30636683268682,0.10684071542306658,-0.31275521247686644,-9.7648851265933008,0.072583443871258008,-0.024542888619058085,-0.0058461811129635124,-0.42838780477011607,0.0083294384483043275,
0.41254000000000002,-10.306366832583667,0.1068118323625834,-0.31431644504976719,-9.7610019463333231,0.069175922784324675,-0.023522241752157336,-0.0055539336591514466,-0.42806113643123905,0.0084109541834463258,
0.41394900000000001,-10.306366832480514,0.10678294930210022,-0.31587767762266794,-9.7629957905160865,0.064294323235021808,-0.02236783786482793,-0.0052440808458304958,-0.42811114202764738,0.008383256166354389,
0.41472999999999999,-10.320880888655577,0.081779745062907944,-0.30538974512329592,-9.7629957904199163,0.064267395675620578,-0.023823368620317382,-0.0052429779301799038,-0.42811073458397786,0.0083832486286520725,
0.41538700000000001,-10.320880888552423,0.081750862002424762,-0.30695097769619667,-9.7711063843096237,0.064360773276511365,-0.023697720514047303,-0.0051829705573582709,-0.42863811636276689,0.0082518616382016644,
0.416821,-10.32088088844927,0.081721978941941581,-0.30851221026909742,-9.7824447597818587,0.065392083272443696,-0.023038358420642786,-0.0053376825977467226,-0.42923098913601493,0.0083353101109186686,
0.41828399999999999,-10.320880888346117,0.0816930958814584,-0.31007344284199817,-9.7913220646023795,0.064025504469441372,-0.023178149258820037,-0.0053338265031898126,-0.42986102266200582,0.008214228127304676,
0.41866399999999998,-10.309303648406281,0.061000978090243352,-0.30571725854369525,-9.7913220645062093,0.063998576910040142,-0.024633680014309489,-0.0053327235875392206,-0.42986061521833629,0.0082142205896023595,
0.419678,-10.309303648303128,0.060972095029760177,-0.307278491116596,-9.7893416702994021,0.063881064052816336,-0.024815105208321121,-0.0053266020633389137,-0.42961497691041389,0.0080216203774250445,
0.42111599999999999,-10.309303648179343,0.060939085817779459,-0.30894535316783506,-9.7843767947547473,0.066260303548212815,-0.025224946117984894,-0.0054180979424314699,-0.42923438985952084,0.0080516230892945136,
0.42254399999999998,-10.309303648055558,0.060906076605798741,-0.31061221521907412,-9.7785018041197311,0.064781342368915834,-0.025759234912762968,-0.0053260242873616956,-0.42860601907285639,0.0080399744007435305,
0.42258000000000001,-10.323760203150435,0.068027574743706146,-0.30500917353895041,-9.7785018040043266,0.06475056801531448,-0.027313243599776781,-0.0053247578586655469,-0.42860558406190746,0.008039965786226299,
0.42402000000000001,-10.32376020302665,0.067994565531725421,-0.30667603559018947,-9.7817991542420426,0.065858389620295013,-0.028163208036624435,-0.0053343109378811444,-0.42882836327078355,0.0079717717019672871,
0.42543599999999998,-10.323760202902864,0.067961556319744695,-0.30834289764142853,-9.7909036023478926,0.069132472156115315,-0.029624026873847274,-0.0055762400180716437,-0.42928371140487775,0.0080894333676892402,
0.426512,-10.336732298212404,0.073873226479640924,-0.30289515073973222,-9.790903602232488,0.069101697802513962,-0.031178035560861087,-0.005574973589375495,-0.42928327639392883,0.0080894247531720087,
0.42685000000000001,-10.336732298088618,0.073840217267660199,-0.30456201279097128,-9.80268361157977,0.07076620877288381,-0.032414221015458426,-0.0058268471991366052,-0.42998380728645108,0.0084437676410790349,
0.428282,-10.336732297964833,0.073807208055679474,-0.30622887484221034,-9.8071894634204657,0.072044108924681813,-0.034177087965385704,-0.0058813311505403138,-0.43037511825252855,0.0085811928436490895,
0.429732,-10.336732297820417,0.073769041154326823,-0.30796237424013551,-9.7991180023931239,0.071934427264798373,-0.036307048111660099,-0.0057671508227288681,-0.42979679279122274,0.0084491244570979174,
0.43043700000000001,-10.351563004115583,0.077857800114157716,-0.30980927396616792,-9.7991180022584867,0.07189884441844685,-0.037923182525006656,-0.0057656766862485918,-0.42979634038888548,0.0084491144965623023,
0.43114000000000002,-10.351563003971167,0.077819633212805064,-0.31154277336409308,-9.787997690672638,0.073413419195327151,-0.03950140467834503,-0.0056767698321200958,-0.42911415036794465,0.0081982182976646934,
0.43257400000000001,-10.351563003826751,0.077781466311452413,-0.31327627276201825,-9.7746440622685693,0.073273715209676987,-0.040786843646006821,-0.0057642403393586318,-0.42822035862377489,0.008312185265912762,
0.43401499999999998,-10.351563003682335,0.077743299410099762,-0.31500977215994341,-9.7631329577473647,0.074214773076501817,-0.043452068502041426,-0.0056085584188463444,-0.42743970812441351,0.0084875278255741576,
0.43436399999999997,-10.317912762844669,0.075400980643167623,-0.31637481935058459,-9.7631329576127275,0.074179190230150294,-0.045068202915387982,-0.0056070842823660681,-0.42743925572207625,0.0084875178650385425,
0.435446,-10.317912762700253,0.075362813741814971,-0.31810831874850976,-9.7616965624287335,0.079114395564066353,-0.046886783725827691,-0.0059077871987786527,-0.42736939082954467,0.0083623429813008236,
0.43686199999999997,-10.317912762555837,0.07532464684046232,-0.31984181814643492,-9.7652862911283105,0.083783750841041518,-0.04915680906278979,-0.0061727087154614816,-0.42775136536792591,0.0083505043376599832,
0.43830400000000003,-10.287709751577378,0.073396267037107846,-0.31710957480417495,-9.7652862909936733,0.083748167994689995,-0.050772943476136347,-0.0061712345789812053,-0.42775091296558865,0.0083504943771243682,
0.438309,-10.287709751432962,0.073358100135755194,-0.31884307420210012,-9.7624042872622194,0.082757906076158003,-0.053378136964644954,-0.0061853689988668036,-0.42764382539702145,0.0083512635525330153,
0.43974400000000002,-10.287709751288546,0.073319933234402543,-0.32057657360002528,-9.7487596714648479,0.082952652861811541,-0.0549403985700865,-0.0062430556726770295,-0.4268629606801374,0.0085136446421061208,
0.44118600000000002,-10.287709751133814,0.073277640181552167,-0.32241642455280084,-9.7285897086497712,0.081109049187328003,-0.057019763343749842,-0.0061427188403920547,-0.42558893028297695,0.0083018749271557626,
0.44222400000000001,-10.293070099932748,0.090998775688716269,-0.33139760228754112,-9.7285897085055169,0.081069619546776189,-0.058735048877605792,-0.0061410812274834701,-0.42558845012534002,0.0083018638898057547,
0.44261600000000001,-10.293070099778017,0.090956482635865893,-0.33323745324031667,-9.710725141201122,0.080213749539331997,-0.060842483306491994,-0.0059683778528327154,-0.42449739622328392,0.0084141447654609031,
0.44403799999999999,-10.293070099623286,0.090914189583015517,-0.33507730419309223,-9.6993427725326811,0.081947903553919677,-0.063961515149481049,-0.0061621454706467385,-0.4236989879571138,0.0083916564224753645,
0.44546799999999998,-10.293070099468554,0.090871896530165142,-0.33691715514586779,-9.6970043526704721,0.084055239459669223,-0.067090936141347909,-0.0062483279373919441,-0.42370653442597711,0.0085080460540620309,
0.44617200000000001,-10.232456555872325,0.090792294986892452,-0.34490867244950241,-9.6970043525262177,0.08401580981911741,-0.068806221675203866,-0.0062466903244833595,-0.42370605426834018,0.008508035016712023,
0.44690400000000002,-10.232456555717594,0.090750001934042077,-0.34674852340227796,-9.6963187746096526,0.089046894805626525,-0.070683556836288658,-0.0065279233569093854,-0.4236577860678058,0.0087379567750778039,
0.44834400000000002,-10.232456555562862,0.090707708881191701,-0.34858837435505352,-9.6940850394925988,0.091158473573194204,-0.072171831797625374,-0.0067684400955771726,-0.42383685136850607,0.0084771786892008302,
0.44978499999999999,-10.232456555408131,0.090665415828341325,-0.35042822530782908,-9.6793169856867909,0.091417976733522796,-0.073810144703978328,-0.0066930478330828914,-0.42299638120796684,0.0083248042088884307,
0.45011099999999998,-10.178060145340158,0.090621243423813197,-0.34865080017448441,-9.6793169855425365,0.091378547092970983,-0.075525430237834285,-0.0066914102201743068,-0.42299590105032991,0.0083247931715384228,
0.45119999999999999,-10.178060145164796,0.090572761143716693,-0.35057534038674798,-9.6590533600426003,0.095297696346594782,-0.076187895348344331,-0.0068810360787210359,-0.42190439609337149,0.0082419396655149784,
0.45264500000000002,-10.178060144989434,0.090524278863620189,-0.35249988059901155,-9.633819772547735,0.097507054310149929,-0.077776394709076629,-0.0070328390698934581,-0.42034242555891105,0.0081887244191448626,
0.45403399999999999,-10.166890099635724,0.10528913557758574,-0.35688379172430384,-9.6338197723842462,0.097461854478298096,-0.079570635693891084,-0.0070309524472254026,-0.42034192329882508,0.008188711766573006,
0.45407500000000001,-10.166890099460362,0.10524065329748923,-0.35880833193656742,-9.6106908242669498,0.098409487243305893,-0.080810760724245784,-0.0069504992118399351,-0.4189292817946399,0.0082725317392171767,
0.45548699999999998,-10.166890099285,0.10519217101739273,-0.36073287214883099,-9.5975567897302643,0.10448995609567165,-0.081518489678032158,-0.0074463952921610694,-0.41816770835654232,0.008189293904999867,
0.45691999999999999,-10.166890099109638,0.10514368873729622,-0.36265741236109456,-9.5926679110367878,0.10879263644075698,-0.082911490823304887,-0.0075002541141641942,-0.41807551265833515,0.0082897008927985162,
0.457986,-10.101750062295377,0.11247618978838939,-0.36634729276800776,-9.5926679108732991,0.10874743660890515,-0.084705731808119342,-0.0074983674914961386,-0.41807501039824918,0.0082896882402266597,
0.458366,-10.101750062120015,0.11242770750829288,-0.36827183298027133,-9.5867122891376741,0.11063185787590031,-0.086185578517492728,-0.0075833428836169009,-0.41794574162445303,0.008277709237099206,
0.45979999999999999,-10.101750061944653,0.11237922522819638,-0.3701963731925349,-9.5707807399731877,0.11361800335910636,-0.086266003311253323,-0.0078442144948922578,-0.41708184224383926,0.0083706094799981569,
0.46121600000000001,-10.10175006174866,0.11232558525872757,-0.37216516637961011,-9.5483775573457557,0.11073355109707016,-0.087045757004437466,-0.0074859824133732206,-0.41582032272989844,0.0082512824338644621,
0.46192499999999997,-10.043297489609879,0.11842115226817949,-0.36656253177437997,-9.5483775571630325,0.11068354277246782,-0.088881254857048744,-0.007483886947786087,-0.41581980892013937,0.008251268435274222,
0.46265200000000001,-10.043297489413886,0.11836751229871069,-0.36853132496145519,-9.5252563717855647,0.11063930171426167,-0.089517533693792034,-0.0074604469028403831,-0.41442215865910803,0.0081650929682492105,
0.46410000000000001,-10.043297489217894,0.11831387232924188,-0.3705001181485304,-9.5097657979340404,0.1103412608371109,-0.089556654689653362,-0.0074541252300134855,-0.41348486072718438,0.0084767310332762059,
0.46553099999999997,-10.043297489021901,0.11826023235977308,-0.37246891133560561,-9.5039170890168165,0.10861210878944973,-0.090176084495195388,-0.0071159427958285663,-0.41324499236370332,0.0087218609564439741,
0.46582899999999999,-9.9960530467390818,0.12579435418379648,-0.36684936750745939,-9.5039170888340934,0.10856210046484739,-0.092011582347806667,-0.0071138473302414327,-0.41324447855394425,0.0087218469578537339,
0.46694400000000003,-9.9960530465430892,0.12574071421432767,-0.3688181606945346,-9.506047932216438,0.10992591658126992,-0.092730169012144953,-0.0073910105311179317,-0.41362668467043145,0.0087306618717888536,
0.468389,-9.9960530463470967,0.12568707424485887,-0.37078695388160982,-9.5061595218282502,0.1058151861924731,-0.094334804864414146,-0.0071079748729197985,-0.4137229299738937,0.0086110261227474866,
0.46976699999999999,-9.9332403727666279,0.12537775845806964,-0.36528160180827335,-9.506159521645527,0.10576517786787076,-0.096170302717025424,-0.0071058794073326648,-0.41372241616413463,0.0086110121241572465,
0.46982600000000002,-9.9332403725706353,0.12532411848860084,-0.36725039499534856,-9.5055761949737221,0.10176596205944698,-0.098465079224441227,-0.0067690083275413942,-0.41384214500759703,0.0088030862860074676,
0.47126200000000001,-9.9332403723540121,0.12526532082976027,-0.36926684523222097,-9.5027178913322246,0.10273166296276579,-0.10083879387638671,-0.0070506499607591233,-0.41361714583673964,0.0087526467325943196,
0.47267900000000002,-9.933240372137389,0.12520652317091971,-0.37128329546909339,-9.5014996974284447,0.098678754013409975,-0.10482556280015284,-0.0067247301103260113,-0.41352583273870169,0.0085820988234288423,
0.47370800000000002,-9.9398257404242489,0.12497529346441955,-0.37102883070212217,-9.5014996972264871,0.098623937196057651,-0.10670549112577608,-0.0067224259744440296,-0.41352530649089808,0.0085820834788202186,
0.47411300000000001,-9.9398257402076258,0.12491649580557899,-0.37304528093899458,-9.5079358849316744,0.096366509809164752,-0.11105634281769519,-0.0065791764042013277,-0.4140015408016342,0.0087355465793583446,
0.47554800000000003,-9.9398257399910026,0.12485769814673844,-0.375061731175867,-9.5185223489778501,0.097662341860815016,-0.11547791140804309,-0.0067444121522324115,-0.41442159461557859,0.0088008077757698987,
0.47698499999999999,-9.9398257397743794,0.12479890048789789,-0.37707818141273941,-9.5446272808306816,0.093793617809220159,-0.11971887014935306,-0.0064266442449222669,-0.41611838036913784,0.0087118448361889096,
0.47765099999999999,-9.9418062365078192,0.12504857565076066,-0.38510953935764397,-9.544627280628724,0.093738800991867835,-0.1215987984749763,-0.0064243401090402852,-0.41611785412133423,0.008711829491580286,
0.478433,-9.9418062362911961,0.12498977799192011,-0.38712598959451638,-9.5745429890856375,0.092835063287733402,-0.1255126237466509,-0.0065143896239238108,-0.41788545620478251,0.0083411263980461628,
0.47984399999999999,-9.9418062360745729,0.12493098033307956,-0.3891424398313888,-9.6073352152918634,0.092349043065977146,-0.12943098143890011,-0.0065188029140984538,-0.42000283240297437,0.0083785511316630222,
0.48130499999999998,-9.9418062358373192,0.12486599344699251,-0.39122243280132407,-9.6276482287553264,0.090780580788799276,-0.13391202629434454,-0.0065392267041653792,-0.42131856278307156,0.0084253624133015497,
0.48156300000000002,-9.9765249748825617,0.12674161312570273,-0.3983436531339668,-9.6276482285341363,0.090719993780146585,-0.1358511952506504,-0.0065366724861614153,-0.42131801995149004,0.0084253454534710757,
0.48272100000000001,-9.976524974645308,0.12667662623961568,-0.40042364610390208,-9.6395534971887713,0.090379530505076924,-0.14002674333384929,-0.0065770938209611203,-0.42169534120454705,0.008341699486189182,
0.484157,-9.9765249744080542,0.12661163935352862,-0.40250363907383735,-9.6564451409220364,0.08730420316479956,-0.14462351157101769,-0.0065611460131820513,-0.4226485969968789,0.0081316637973884651,
0.48548799999999998,-10.070611080516645,0.12818767454564778,-0.41622159690243832,-9.6564451407008463,0.087243616156146869,-0.14656268052732355,-0.0065585917951780873,-0.42264805416529738,0.008131646837557991,
0.48559799999999997,-10.070611080279392,0.12812268765956072,-0.41830158987237359,-9.6821063204374251,0.091159406421809475,-0.15064190020089982,-0.0068262047579001539,-0.4239028060403281,0.0080367495631219615,
0.48702299999999998,-10.070611080042138,0.12805770077347367,-0.42038158284230887,-9.7161220567832505,0.091782958051116068,-0.15404420642136904,-0.0068731192091699327,-0.42600633503042462,0.0081483874486049709,
0.48845899999999998,-10.070611079804884,0.12799271388738662,-0.42246157581224414,-9.7468318564928733,0.094002320526709551,-0.15717770607231957,-0.0071179755202711381,-0.42775168839847599,0.008007443330916646,
0.48940899999999998,-10.129712057060264,0.1190682220003175,-0.43808777516772884,-9.7468318562716831,0.093941733518056861,-0.15911687502862543,-0.0071154213022671742,-0.42775114556689448,0.008007426371086172,
0.48988199999999998,-10.12971205682301,0.11900323511423044,-0.44016776813766412,-9.7659890508267484,0.094446049762124465,-0.16040294343094746,-0.0073310540034811191,-0.42893488127613,0.0077400641135777657,
0.49131399999999997,-10.12971205655481,0.11893205900089689,-0.44233245036708746,-9.7711069080411637,0.089695318315520856,-0.16254046909275624,-0.0069414903029904503,-0.42908621654117285,0.0076767624182139402,
0.49274699999999999,-10.129712056286611,0.11886088288756333,-0.4444971325965108,-9.7702073936391933,0.086925999704517809,-0.16468332828428658,-0.0067588003697879196,-0.42887492017766748,0.0076067611323904234,
0.49334,-10.182751409610569,0.12422416043126967,-0.45869622135098848,-9.7702073933891516,0.086859642504564752,-0.16670145269155096,-0.0067559971420244691,-0.42887435524321477,0.0076067425573375768,
0.494172,-10.182751409342369,0.12415298431793612,-0.46086090358041182,-9.7731724709943322,0.084604334812458909,-0.16796476685643086,-0.006586449614166873,-0.42849670963049374,0.0078302753262958352,
0.49561100000000002,-10.18275140907417,0.12408180820460256,-0.46302558580983516,-9.7944447924448621,0.084415664451750555,-0.17015209423701211,-0.006568192808397242,-0.42976119952037545,0.0079838288879828714,
0.49706699999999998,-10.18275140880597,0.124010632091269,-0.4651902680392585,-9.8232551805622723,0.087343627105776506,-0.17085742577482391,-0.0068422389884514956,-0.43131977866955346,0.0081235788160869005,
0.49727700000000002,-10.237486336266493,0.12849259799637297,-0.46553161338038462,-9.8232551803122306,0.087277269905823449,-0.17287555018208828,-0.0068394357606880452,-0.43131921373510074,0.008123560241034054,
0.498477,-10.237486335998293,0.12842142188303943,-0.46769629560980797,-9.858637529472853,0.087179147884018496,-0.17202440403647379,-0.0068778564008441503,-0.43364036736398537,0.0084109614172819258,
0.49994899999999998,-10.237486335709463,0.1283409619288364,-0.46997186816072906,-9.878937350886563,0.081383421716835158,-0.1708586663072261,-0.0065336555329939729,-0.43478827183853569,0.0081361642609514822,
0.50121099999999996,-10.319801756314776,0.11194318495407324,-0.4748382981565572,-9.8789373506172868,0.081308409229931822,-0.17298017330862003,-0.0065304779719340825,-0.43478767796386586,0.0081361432630663831,
0.50140799999999996,-10.319801756025946,0.11186272499987021,-0.47711387070747829,-9.8830587847794842,0.071120666868491,-0.17077581142249673,-0.0058357780092205425,-0.4348422785788556,0.0082759039608306609,
0.50278,-10.319801755737116,0.11178226504566718,-0.47938944325839938,-9.8796870183497916,0.062969394199904632,-0.16932221182950641,-0.0053179504703157708,-0.4345837128608202,0.0081409286296236557,
0.50419800000000004,-10.319801755448285,0.11170180509146416,-0.48166501580932047,-9.8712449976270591,0.0584312325854284,-0.16845234801420156,-0.0050727632466319493,-0.43359282484768541,0.0082192204144468841,
0.50513200000000003,-10.39364915322899,0.080505033658564096,-0.48573167413574414,-9.8712449973577829,0.058356220098525063,-0.17057385501559549,-0.0050695856855720589,-0.43359223097301558,0.008219199416561785,
0.505637,-10.39364915294016,0.080424573704361069,-0.48800724668666523,-9.8831990188249801,0.058945415698028775,-0.17011464624016712,-0.0051993716213351877,-0.43438845245475666,0.0082827635705079745,
0.50706600000000002,-10.39364915265133,0.080344113750158042,-0.49028281923758632,-9.8996349774416252,0.064173321318976559,-0.17019783020816801,-0.0057548797149992812,-0.43514137906610373,0.0083526565348476765,
0.50853199999999998,-10.393649152362499,0.080263653795955014,-0.49255839178850741,-9.9196226391130171,0.062539448394779956,-0.1701777249222664,-0.0055721960235678072,-0.43661566132852597,0.0085847431915013917,
0.50906499999999999,-10.39821495556361,0.05445290974840665,-0.47312149536153469,-9.919622638843741,0.06246443590787662,-0.17229923192366034,-0.0055690184625079167,-0.43661506745385614,0.0085847221936162926,
0.50992999999999999,-10.39821495527478,0.054372449794203623,-0.47539706791245578,-9.9218611108934542,0.059069989134195748,-0.17211583102891503,-0.0053812449097694675,-0.43654616764815529,0.0083365209805101956,
0.51136000000000004,-10.398214954944688,0.054282705999131126,-0.4777818803242756,-9.9187260098011798,0.058320241376705342,-0.17193658256349306,-0.0054663103735067397,-0.43637831384787074,0.0082006074885041091,
0.51279699999999995,-10.398214954614597,0.054192962204058628,-0.48016669273609541,-9.9067723540087016,0.054868411076265118,-0.17231707444151528,-0.0051423892601173294,-0.43533949992589616,0.0080016629534714768,
0.51301600000000003,-10.460355432186807,0.052970307615516674,-0.47379200430663415,-9.9067723537009584,0.054784743302411495,-0.17454042531935873,-0.0051388372820644129,-0.43533887754089046,0.0080016395327530791,
0.51425600000000005,-10.460355431856716,0.052880563820444176,-0.47617681671845397,-9.8996822075501623,0.060275075160875824,-0.17475042635433455,-0.0055432955269481216,-0.43468256193028171,0.0080962219174564743,
0.51564699999999997,-10.460355431526624,0.052790820025371679,-0.47856162913027378,-9.9042008078969168,0.06782529834081015,-0.17438030083980535,-0.0060854960449063375,-0.43491658542619055,0.0082839160935214463,
0.51697300000000002,-10.516144218384987,0.065794095096246952,-0.47229333418561698,-9.9042008075891736,0.067741630566956534,-0.1766036517176488,-0.006081944066853421,-0.43491596304118485,0.0082838926728030487,
0.51708799999999999,-10.516144218054896,0.065704351301174455,-0.47467814659743679,-9.9152375129006565,0.07105591015231362,-0.17692494244243898,-0.0062482207050084003,-0.43551591215743429,0.0084354009965608608,
0.51852900000000002,-10.516144217724804,0.065614607506101957,-0.4770629590092566,-9.922171378899435,0.073558699945089456,-0.17738697007511622,-0.0064840724506123769,-0.43618809815790455,0.0084725539704143017,
0.51996200000000004,-10.516144217394713,0.06552486371102946,-0.47944777142107642,-9.9152995759377394,0.071158525094159916,-0.17891366110799292,-0.0062798653646380801,-0.43551836131266586,0.0086756532283860308,
0.52094799999999997,-10.487176210267036,0.076345136683214923,-0.47421004393956789,-9.9152995755915274,0.07106524033480581,-0.18125001156546638,-0.0062758973589856224,-0.43551770729456407,0.0086756271156308677,
0.52138499999999999,-10.487176209895681,0.076245077509398379,-0.47671606205162942,-9.9061900146149124,0.071436989891092151,-0.18271528559605513,-0.0061169924124132458,-0.43514480450633591,0.0086059974161418959,
0.52283599999999997,-10.487176209524327,0.076145018335581835,-0.47922208016369094,-9.8921315134781533,0.078115770254533048,-0.18438696166763302,-0.0065656610831755849,-0.43394397651244943,0.0083694986829362938,
0.52427999999999997,-10.487176209152972,0.076044959161765291,-0.48172809827575247,-9.8843205406327357,0.079800220921058637,-0.18724554266856835,-0.0066421491915854142,-0.4335892627361882,0.0083648897402378401,
0.52488699999999999,-10.472277405417735,0.066117112421511054,-0.47387532098108887,-9.8843205402865237,0.079706936161704531,-0.18958189312604182,-0.0066381811859329565,-0.43358860871808641,0.0083648636274826771,
0.52572300000000005,-10.47227740504638,0.06601705324769451,-0.47638133909315039,-9.876848619347852,0.081694774597238812,-0.19171763859353186,-0.0066883803933314272,-0.43280038809301469,0.0083598682262130877,
0.52713500000000002,-10.472277404675026,0.065916994073877966,-0.47888735720521192,-9.8789893959201365,0.084093784360010054,-0.19362685256780213,-0.006918936214676521,-0.43315824484721743,0.0084420972398940638,
0.52859100000000003,-10.472277404303671,0.065816934900061422,-0.48139337531727344,-9.8735287701357883,0.080754116128898545,-0.19537292552568145,-0.00660960881828054,-0.43288163918252626,0.0085584834025368359,
0.52881500000000004,-10.458915699606226,0.071637660393052444,-0.47356567801292171,-9.8735287697895764,0.080660831369544439,-0.19770927598315491,-0.0066056408126280823,-0.43288098516442447,0.0085584572897816728,
0.53002499999999997,-10.458915699193611,0.07152625430261747,-0.47620001943655826,-9.8581086535297047,0.079883579321290005,-0.20115821358461936,-0.0066577183139590289,-0.43191568246452861,0.0083882468445277691,
0.53145299999999995,-10.458915698780995,0.071414848212182497,-0.47883436086019482,-9.8359541412909195,0.080158802236638585,-0.20404137196809516,-0.0068206657033334462,-0.43063056854451409,0.0085389627245671847,
0.53275300000000003,-10.443479969300304,0.076264066945396322,-0.48343100841393127,-9.8359541409062405,0.080054938793233957,-0.2064973577251939,-0.0068162398136162204,-0.43062988103581229,0.0085389336505717894,
0.53286199999999995,-10.443479968887688,0.076152660854961349,-0.48606534983756783,-9.8098604553053441,0.082408075924693763,-0.21090612525741648,-0.0068588277187406075,-0.42889753966053235,0.0083143671557651348,
0.53429199999999999,-10.443479968475073,0.076041254764526375,-0.48869969126120438,-9.7955210521995753,0.085278761313259108,-0.21467369989567686,-0.0069520708278576933,-0.42795753224111438,0.0081287641335934333,
0.535748,-10.443479968062457,0.075929848674091402,-0.49133403268484094,-9.79327364764716,0.082971194528120754,-0.21906782123262952,-0.0068288900326503831,-0.42783776146260016,0.0081367854871650328,
0.53669,-10.362437377410926,0.086171155678298056,-0.49769764868002558,-9.7932736472624811,0.082867331084716125,-0.22152380698972826,-0.0068244641429331572,-0.42783707395389836,0.0081367564131696376,
0.53716299999999995,-10.36243737699831,0.086059749587863082,-0.50033199010366214,-9.7951307470030979,0.080633962501929932,-0.22460934602520716,-0.0067460451655319258,-0.42815648727908923,0.0081329350176428065,
0.53861000000000003,-10.362437376585694,0.085948343497428109,-0.50296633152729875,-9.791094867828086,0.082527892745717257,-0.22675350533805055,-0.0068811004540227398,-0.42809633518468093,0.0083837829377998736,
0.54002499999999998,-10.362437376142132,0.085824558952500324,-0.50570619927548621,-9.7745535440536901,0.081225812988312954,-0.22929591945138914,-0.0067114830589235924,-0.42708962791473343,0.0082202271054809695,
0.54064199999999996,-10.289703013021931,0.070500489154912985,-0.51118512738248212,-9.7745535436401596,0.081110409162307773,-0.23185028697015725,-0.0067065559116757673,-0.42708891286525036,0.0082201948010423957,
0.54144199999999998,-10.28970301257837,0.0703767046099852,-0.51392499513066958,-9.750261998191645,0.08124897970938387,-0.2342045536510709,-0.0066619548757078373,-0.4257470252919765,0.0082496737061947632,
0.54290000000000005,-10.289703012134808,0.070252920065057414,-0.51666486287885705,-9.7221187675037797,0.084503307333507235,-0.23666297294281996,-0.0067762983557228089,-0.42396849673192832,0.0085580496494484463,
0.54431799999999997,-10.289703011691246,0.070129135520129629,-0.51940473062704451,-9.6975269268651303,0.082800291847296079,-0.24140868741615662,-0.0066490785550984508,-0.42245115315653936,0.0085229048650348367,
0.54458300000000004,-10.295844591161668,0.057502125474905061,-0.52886425428703765,-9.6975269264515997,0.082684888021290898,-0.24396305493492473,-0.0066441514078506257,-0.42245043810705629,0.0085228725605962629,
0.54575099999999999,-10.295844590718106,0.057378340929977269,-0.53160412203522511,-9.6874243872701982,0.09007306478132121,-0.24688108582436447,-0.0072163959361619531,-0.42196809381544953,0.0084618527582002098,
0.54718699999999998,-10.295844590274545,0.057254556385049477,-0.53434398978341258,-9.6800320288485366,0.094149276022820763,-0.25062533573206763,-0.0072993074456816735,-0.42180761110829496,0.0082934373986547731,
0.54852900000000004,-10.215424486735813,0.063293198299863102,-0.57327757200612683,-9.6800320284350061,0.094033872196815582,-0.25317970325083572,-0.0072943802984338484,-0.42180689605881189,0.0082934050942161993,
0.548628,-10.215424486292251,0.063169413754935316,-0.5760174397543143,-9.6633045852087278,0.09884150224713141,-0.2574706071174247,-0.0076346382983040082,-0.4210679868551116,0.0087539757187303311,
0.55005899999999996,-10.215424485797113,0.063036345369138047,-0.57882167546586416,-9.6407547172379449,0.10361355367602658,-0.2604031641980547,-0.0077924928536327884,-0.41980571614589157,0.0084972718431483209,
0.55147599999999997,-10.215424485301975,0.062903276983340778,-0.58162591117741402,-9.6133112199799484,0.10505283846674277,-0.26566967783886436,-0.0079069872690613763,-0.41817139818593235,0.0080659450340746265,
0.55245999999999995,-10.14329210729286,-0.012635049329512246,-0.57541105344376553,-9.6133112195183337,0.10492877935378729,-0.2682840553471551,-0.0079016834293196194,-0.41817066633604205,0.008065910306802232,
0.55291400000000002,-10.143292106797722,-0.01276811771530951,-0.57821528915531539,-9.5924124818207552,0.10779927168631363,-0.27139160898237624,-0.0077820052419559508,-0.41717670895631648,0.0081009039224557676,
0.55434499999999998,-10.143292106302583,-0.012901186101106774,-0.58101952486686526,-9.5765396066077297,0.113100738821567,-0.27534051234667084,-0.0082155857145240485,-0.41620891527188192,0.0085107219458451996,
0.55577299999999996,-10.143292105807445,-0.013034254486904038,-0.58382376057841512,-9.5665040392959764,0.11272570055670546,-0.27904022745655688,-0.0079933989640521303,-0.41601082447386811,0.0085133783088962613,
0.55641600000000002,-10.081012092963444,0.02975930087748134,-0.58352304528847732,-9.5665040388343616,0.11260164144374998,-0.28165460496484762,-0.0079880951243103734,-0.41601009262397781,0.0085133435816238667,
0.55718800000000002,-10.081012092468306,0.029626232491684078,-0.58632728100002718,-9.5558952383305744,0.11249706253152617,-0.2850262915388202,-0.007906830904159003,-0.4153012613642062,0.008390542445907239,
0.55862800000000001,-10.081012091973168,0.029493164105886815,-0.58913151671157704,-9.5510060173344247,0.11065042872731329,-0.28803766145473697,-0.0078717704871242456,-0.41547310864500997,0.008301172599327146,
0.56006699999999998,-10.081012091447084,0.029349780341345506,-0.59196102510104964,-9.5327698426306675,0.1039648064757486,-0.29264891921774372,-0.0075904208096938706,-0.41428447121736217,0.0081441481254606492,
0.56036799999999998,-10.060099088510015,0.047165984425626591,-0.55357056721360054,-9.5327698421402012,0.10383113037729264,-0.29528685834051055,-0.0075846960774885661,-0.41428373277072039,0.0081441107061520114,
0.56156399999999995,-10.06009908798393,0.047022600661085281,-0.55640007560307314,-9.5137031721534999,0.099189643476235795,-0.29895697808395577,-0.007286516812603532,-0.41315283395662827,0.0084853583288278488,
0.56297699999999995,-10.060099087457846,0.046879216896543972,-0.55922958399254574,-9.500443506436941,0.099656036789079291,-0.30352162225307572,-0.007287044853356385,-0.4122342807700804,0.0082535320252598611,
0.56437000000000004,-10.04131180300449,0.06171280783385398,-0.56506679242319702,-9.5004435059464747,0.099522360690623327,-0.30615956137584255,-0.0072813201211510805,-0.41223354232343862,0.0082534946059512233,
0.56438299999999997,-10.041311802478406,0.061569424069312671,-0.56789630081266962,-9.500721777485321,0.095493163621316102,-0.31127037440779132,-0.0070757550347916144,-0.41257415376118578,0.0082545221803091238,
0.56579900000000005,-10.041311801952322,0.061426040304771362,-0.57072580920214222,-9.5042126172975898,0.092270027921469572,-0.31680234138017471,-0.0068372759680408023,-0.41286400644461618,0.0082712579049130965,
0.56723999999999997,-10.041311801426238,0.061282656540230053,-0.57355531759161482,-9.5115017402807318,0.091236111227109423,-0.32220607235594451,-0.0068720681883186569,-0.41357735717860566,0.0085482286327327253,
0.56825000000000003,-9.9902685198842516,0.068665176631450608,-0.58168760745710713,-9.5115017397902655,0.091102435128653458,-0.32484401147871134,-0.0068663434561133524,-0.41357661873196389,0.0085481912134240876,
0.56867100000000004,-9.9902685193581675,0.068521792866909306,-0.58451711584657973,-9.5105461612319147,0.092111782701850359,-0.33004817427685706,-0.0068618374055167842,-0.41372008389500403,0.0084597760989191615,
0.57012200000000002,-9.9902685188011375,0.068371188337247299,-0.58734445800651602,-9.498975737767676,0.085954509134886406,-0.3361002036831045,-0.006537153714888745,-0.41294724626285589,0.0084251512301906466,
0.571546,-9.9902685182441076,0.068220583807585292,-0.59017180016645232,-9.4941445099123509,0.081787223165996278,-0.34254677892887575,-0.0062575124074000493,-0.4126054322627089,0.0083417661254119972,
0.57218000000000002,-9.9973994045276662,0.072760355813437039,-0.6124095630539923,-9.494144509393033,0.081646815177690096,-0.34518269848468747,-0.0062514920434957287,-0.41260469438012792,0.0083417268216775201,
0.57295799999999997,-9.9973994039706362,0.072609751283775031,-0.6152369052139286,-9.5021737833632614,0.083703331107546339,-0.35079408706098414,-0.0064636095861749475,-0.41312670415057778,0.008301958888879888,
0.57440800000000003,-9.9973994034136062,0.072459146754113024,-0.61806424737386489,-9.5171291671738416,0.084189474272142503,-0.3575553622981793,-0.0067404843055942996,-0.4140562933414712,0.008502781490281601,
0.57582100000000003,-9.9973994028565762,0.072308542224451017,-0.62089158953380119,-9.5386180410759049,0.084794664774449066,-0.36350262115879606,-0.0067567460937897079,-0.4153289580407411,0.0086909202208933587,
0.57610700000000004,-10.003795668367127,0.07614559229808697,-0.64102295866626124,-9.538618040556587,0.084654256786142884,-0.36613854071460777,-0.0067507257298853873,-0.41532822015816012,0.0086908809171588816,
0.57725499999999996,-10.003795667810097,0.075994987768424963,-0.64385030082619754,-9.5601145335066668,0.087629444323848726,-0.36884549489635204,-0.0068990590478021233,-0.41675483483944775,0.0086166565324166215,
0.578712,-10.003795667253067,0.075844383238762955,-0.64667764298613384,-9.5754855400739949,0.086693086932618374,-0.37267869206877813,-0.0069346190838862317,-0.41780297887025597,0.0086687828867379659,
0.58004800000000001,-10.051858438676009,0.079486783531081434,-0.66652014104918711,-9.575485539554677,0.086552678944312192,-0.37531461162458984,-0.0069285987199819111,-0.41780224098767499,0.0086687435830034888,
0.58012600000000003,-10.051858438118979,0.079336179001419427,-0.66934748320912341,-9.5806937749483332,0.07937686283555187,-0.37752045087950359,-0.0063296400973997732,-0.41802286535405114,0.0083733872400511711,
0.58154899999999998,-10.051858437541318,0.079178353706636714,-0.67217400013876027,-9.5815108469589987,0.077808674154483615,-0.38102122633785163,-0.0062725288435975194,-0.41813915799110962,0.0082959968758627677,
0.58300300000000005,-10.051858436963657,0.079020528411854002,-0.67500051706839714,-9.5828451660734544,0.079115811593469393,-0.38330702977152314,-0.0063805854821049838,-0.41798885846237954,0.008315515717284323,
0.58398099999999997,-10.082924768247983,0.064851311937138598,-0.69290253139076463,-9.5828451655349038,0.078968671715312994,-0.38594217996849484,-0.0063742695545051216,-0.41798812079431696,0.008315474529124527,
0.58441900000000002,-10.082924767670322,0.064693486642355885,-0.6957290483204015,-9.5919457626125908,0.078152356086566815,-0.39158773747687159,-0.0062506550880971805,-0.41849485673418696,0.0083643354935895291,
0.58586300000000002,-10.082924767092662,0.064535661347573173,-0.69855556525003837,-9.6109328617455159,0.079809110162135585,-0.39542801276330108,-0.0064775963442130265,-0.41946390829220653,0.0084023481896975619,
0.58728800000000003,-10.082924766515001,0.06437783605279046,-0.70138208217967524,-9.6357422156683459,0.078284932638277016,-0.40032738676631091,-0.0065901214209702977,-0.4210056507872213,0.0083868052257212375,
0.58795799999999998,-10.110825818035426,0.052703546689257773,-0.69977592497188257,-9.6357422151297953,0.078137792760120617,-0.4029625369632826,-0.0065838054933704355,-0.42100491311915872,0.0083867640375614415,
0.58870999999999996,-10.110825817457766,0.05254572139447506,-0.70260244190151944,-9.6643145109511703,0.073482048967026856,-0.40704698931062777,-0.0061914844037925798,-0.42258955260813663,0.0082690453420041585,
0.59018499999999996,-10.110825816828527,0.052374486107324959,-0.70551849631865393,-9.6945682858489466,0.073898223389544979,-0.41048844618707558,-0.0063262926855045219,-0.42477771617510457,0.0082903058008111253,
0.59160299999999999,-10.110825816199288,0.052203250820174858,-0.70843455073578843,-9.7088448588996936,0.070004033426502119,-0.41197253104489534,-0.006210290721823916,-0.42537971016848458,0.008534635339355846,
0.59186099999999997,-10.170279808797597,0.06563706671277926,-0.72019861039919186,-9.7088448583130571,0.069844391467194955,-0.4146911566760107,-0.0062034305084760297,-0.42537894913145019,0.0085345906515483603,
0.59304400000000002,-10.170279808168358,0.065465831425629159,-0.72311466481632636,-9.7174962634619213,0.062030349519030629,-0.41524101215124481,-0.005669600796205424,-0.42584621121835581,0.0081005517339334272,
0.59445499999999996,-10.170279807539119,0.065294596138479058,-0.72603071923346085,-9.7203063486941002,0.055615719637614039,-0.41440827364344573,-0.0053788323501418427,-0.42565265384790169,0.0077336426842938531,
0.59582400000000002,-10.219232209180824,0.051812954986737381,-0.73659381359516529,-9.7203063481074636,0.055456077678306875,-0.41712689927456109,-0.0053719721367939564,-0.42565189281086729,0.0077335979964863674,
0.59588300000000005,-10.219232208551585,0.05164171969958728,-0.73950986801229979,-9.7286517359455562,0.041663501581216941,-0.41549493432388623,-0.0044479028187297265,-0.42614012467543128,0.0078251373193619737,
0.59734799999999999,-10.219232207922346,0.051470484412437179,-0.74242592242943428,-9.744424561096702,0.03163867301001673,-0.41554984091045682,-0.0038847716098366369,-0.42686320701510083,0.0080886448200599981,
0.59873900000000002,-10.219232207293107,0.051299249125287077,-0.74534197684656878,-9.7695783129733069,0.033012374362016698,-0.41587147889534692,-0.0040531822354693322,-0.42849070926932248,0.0081437761142858726,
0.599773,-10.263160114121069,0.040219005033326642,-0.73933424195819708,-9.7695783123866704,0.032852732402709535,-0.41859010452646228,-0.0040463220221214459,-0.42848994823228809,0.0081437314264783869,
0.60017100000000001,-10.263160113429938,0.040031265140186373,-0.74237480299677139,-9.7863777946789678,0.032050069251634818,-0.41977130204591107,-0.0040667217602724411,-0.42957493010173164,0.0082520670695706393,
0.60162700000000002,-10.263160112738808,0.039843525247046103,-0.7454153640353457,-9.7895366588481441,0.034613067220932797,-0.42088647249502847,-0.0042306265666155873,-0.42974041226944126,0.0082455893280180669,
0.60303499999999999,-10.263160112047677,0.039655785353905834,-0.74845592507392,-9.7847829718977692,0.036511977283840737,-0.42155484047453978,-0.0045368881223573961,-0.42925187780503354,0.0078176965823314997,
0.60367000000000004,-10.3352429176919,0.021951996992099331,-0.73842513789156006,-9.7847829712534313,0.03633694814773307,-0.42438954312064531,-0.0045293587443626469,-0.42925108427260755,0.0078176475872653983,
0.60446100000000003,-10.33524291700077,0.021764257098959058,-0.74146569893013436,-9.7769174954856179,0.032160575060650017,-0.42516532391891398,-0.0040666833083553514,-0.42858186956974587,0.0081275633466946877,
0.60589499999999996,-10.335242916309639,0.021576517205818786,-0.74450625996870867,-9.7814868629957239,0.035362142923706992,-0.42528201813811184,-0.0042647730321134208,-0.42854335267759885,0.0082298897525307172,
0.60733899999999996,-10.335242915618508,0.021388777312678513,-0.74754682100728298,-9.7989737337328133,0.042192810098550575,-0.42579751413132166,-0.0048729073828888492,-0.42969390706811872,0.0076940896723797026,
0.60759200000000002,-10.380968604811002,0.022835919412757602,-0.73758122905336054,-9.7989737330884754,0.042017780962442908,-0.42863221677742719,-0.0048653780048940999,-0.42969311353569273,0.0076940406773136003,
0.60877499999999996,-10.380968604119872,0.022648179519617329,-0.74062179009193485,-9.8140550442047765,0.054222058245313079,-0.42852694565575666,-0.0054926665703250955,-0.4306594031166166,0.0079842566109134799,
0.61022900000000002,-10.380968603366849,0.022441871944737738,-0.74381563765864467,-9.8129182827504078,0.067901362578657726,-0.42891243442005561,-0.0063532901371326726,-0.43056044827292583,0.0082383796371084551,
