time,ax,ay,az,fx,fy,fz,tx,ty,tz,
0.001436,0.20855978854023355,11.731765181768205,-0.74010415697968435,-9.1976377793810649,0.077262341665886636,0.13228191593076927,-0.004812945680716621,-0.4018664369171846,0.0087702683594819194,
0.0028969999999999998,0.20855221044007768,13.794840930563382,-0.74008017444618113,-9.2040428816739528,1.0254666271415613,0.1165946951025599,-0.046871743492995985,-0.40223230389816184,0.0088713883643696586,
0.0043239999999999997,0.20854463233992182,15.857916679358558,-0.74005619191267791,-9.2077495015040771,1.9723399614180135,0.12065316438023455,-0.088674224581695438,-0.40224773570266636,0.0090691115057332048,
0.0052040000000000003,-9.2698754570852273,-0.48075953151701611,-0.23632763946755919,-9.207756566535922,3.8957370615031808,0.12067552319833405,-0.17310903686613349,-0.40224805210783765,0.0096075188246864413,
0.0057489999999999998,-9.2698830351853836,1.5823162172781609,-0.23630365693405597,-9.2127228126231397,4.3501652919703382,0.11556523104230004,-0.19336843303424983,-0.40266800017605098,0.0097403564865755216,
0.0071799999999999998,-9.2698906132855399,3.6453919660733378,-0.23627967440055275,-9.2187970824861587,4.9889706453508609,0.11667921837908643,-0.22196007452766178,-0.40296102925224053,0.009691659351995216,
0.0085979999999999997,-9.2698981913856962,5.7084677148685152,-0.23625569186704953,-9.2265304029232134,5.7052860039840434,0.11509533176748325,-0.25420927392588988,-0.40332274993428735,0.0097585788485847411,
0.0091409999999999998,-9.4657007378981035,3.5168705437387295,-0.2127436683243514,-9.2265374679550582,7.6286831040692107,0.11511769058558276,-0.33864408621032793,-0.40332306633945864,0.010296986167537978,
0.010023000000000001,-9.4657007378981035,3.5168705437387295,-0.2127507765486901,-9.2301096586446754,6.4674851485930356,0.1191659790298094,-0.2884636042848252,-0.40348133850393952,0.0097257402207636991,
0.011448,-9.4657007378981035,3.5168705437387295,-0.21275788477302879,-9.2399985201624766,5.5955900161232073,0.13152626893939795,-0.25136886598035324,-0.40373036273815061,0.0093783196646182281,
0.012886,-9.4657007378981035,3.5168705437387295,-0.21276499299736748,-9.256850750984281,4.8884526548871108,0.13827371343883918,-0.22046704706687284,-0.40458186238116439,0.0089550688950775174,
0.013103999999999999,-9.5329761249767575,2.0723936104223557,-0.20520249439318924,-9.256850750984281,4.8884526548871108,0.1382670864703007,-0.22046704742733833,-0.40458186052611023,0.0089550688950775174,
0.014319,-9.5329761249767575,2.0723936104223557,-0.20520960261752794,-9.267830599420817,4.3246967436735062,0.14497112339310092,-0.196268443959075,-0.40512796252552896,0.008607935095098964,
0.015737999999999999,-9.5329761249767575,2.0723936104223557,-0.20521671084186663,-9.2666409274936701,3.8635969688316805,0.15242356114138236,-0.17677844406872098,-0.40489530466908763,0.0085160901965937383,
0.017070999999999999,-9.5809785647153891,1.3564272242462112,-0.17424942492295867,-9.2666409274936701,3.8635969688316805,0.15241693417284388,-0.17677844442918647,-0.40489530281403346,0.0085160901965937383,
0.017180000000000001,-9.5809785647153891,1.3564272242462112,-0.17425653314729736,-9.2620842347609003,3.4608968546472911,0.14101162921523924,-0.15908879071489967,-0.40459078189307535,0.0084190159853675187,
0.018627000000000001,-9.5809785647153891,1.3564272242462112,-0.17426364137163605,-9.261591361417608,3.1440332541347855,0.14644314556417765,-0.14551573703336165,-0.40452227749525682,0.008504711996239615,
0.020055,-9.5809785647153891,1.3564272242462112,-0.1742684076955385,-9.2707838379350136,2.8671678287237699,0.14789603431017787,-0.13419093299609525,-0.40496963729546986,0.0087378937396595333,
0.020967,-9.6037541207608221,0.90404617770695128,-0.15539730715319292,-9.2707838379350136,2.8671678287237699,0.14789159068585753,-0.13419093323780051,-0.40496963605158831,0.0087378937396595333,
0.021492000000000001,-9.6037541207608221,0.90404617770695128,-0.15540207347709536,-9.2834433255061874,2.5962489196740766,0.15000079528735741,-0.12212658921016969,-0.40538557733985342,0.0084599982047497951,
0.022911999999999998,-9.6037541207608221,0.90404617770695128,-0.15540683980099781,-9.2928321912717404,2.3752601987826516,0.15699879033769534,-0.11293969671131203,-0.40595785353428604,0.0084631355149402104,
0.024362999999999999,-9.6037541207608221,0.90404617770695128,-0.15541160612490026,-9.293646110807229,2.1677595761086734,0.16240443547055289,-0.10391371871178069,-0.40586642611018736,0.0085592300659136158,
0.024902000000000001,-9.619099666322473,0.59678831060881077,-0.14548813194176735,-9.293646110807229,2.1677595761086734,0.16239999184623255,-0.10391371895348597,-0.40586642486630581,0.0085592300659136158,
0.025808000000000001,-9.619099666322473,0.59678831060881077,-0.1454928982656698,-9.29306786609237,1.9854983911795463,0.16010844761178961,-0.096014146063652467,-0.4057936597770096,0.0085227311330382943,
0.027241000000000001,-9.619099666322473,0.59678831060881077,-0.14549766458957225,-9.2982820679645393,1.8423020957869205,0.15863410123757934,-0.090209763128197756,-0.40609051414039959,0.0084019241461839068,
0.028642999999999998,-9.619099666322473,0.59678831060881077,-0.1455024309134747,-9.308200691258083,1.6996495673579584,0.15803854442445064,-0.083945574370611453,-0.40652925863651751,0.008602869717878903,
0.028843000000000001,-9.6543440576884194,0.38231624819101395,-0.13696042151828175,-9.308200691258083,1.6996495673579584,0.15803410080013031,-0.083945574612316734,-0.40652925739263596,0.008602869717878903,
0.030075999999999999,-9.6543440576884194,0.38231624819101395,-0.13698730215744309,-9.3138238720154369,1.5735074636728923,0.1581084268890379,-0.078620393490010432,-0.40673966314496801,0.0086472430009157941,
0.031517999999999997,-9.6543440576884194,0.38231624819101395,-0.13701418279660443,-9.3146761144174626,1.4505492830859315,0.15936535169058721,-0.073288349983565135,-0.40693384429925389,0.0087052025464540769,
0.032799000000000002,-9.6900902256756183,0.21913224783672275,-0.13056633372963652,-9.3146761144174626,1.4505492830859315,0.15934029098041136,-0.073288351346710495,-0.40693383728413457,0.0087052025464540769,
0.032983999999999999,-9.6900902256756183,0.21913224783672275,-0.13059321436879787,-9.3118898040414955,1.3318590322901442,0.1584518463714161,-0.067871499187696721,-0.40675359532714489,0.0088733987549330321,
0.034370999999999999,-9.6900902256756183,0.21913224783672275,-0.13062009500795921,-9.3123785969309321,1.2437305322834411,0.15869888471435484,-0.064187621194867692,-0.4066709603555238,0.0087057701153486263,
0.035809000000000001,-9.6900902256756183,0.21913224783672275,-0.13064697564712055,-9.3139632410863609,1.1611814966928113,0.15598118031408184,-0.060541914249278961,-0.40678105833477696,0.0084585372869765765,
0.036727000000000003,-9.718197659203927,0.090037795304163282,-0.12916571049353054,-9.3139632410863609,1.1611814966928113,0.15595611960390598,-0.060541915612424314,-0.40678105131965764,0.0084585372869765765,
0.037238,-9.718197659203927,0.090037795304163282,-0.12919259113269188,-9.3136182158827694,1.0830741640956441,0.1522570133726194,-0.056983860538052884,-0.4067404549486125,0.0086034042204596855,
0.038689000000000001,-9.718197659203927,0.090037795304163282,-0.12921947177185322,-9.3101299151434471,1.0157514299834682,0.15114041198961856,-0.054187180851943878,-0.40652187107727428,0.00848213544816581,
0.040118000000000001,-9.718197659203927,0.090037795304163282,-0.12922491210260278,-9.3057275619651669,0.93874692901913126,0.14910354074149601,-0.050638559356979605,-0.40641166203970219,0.0084803686898076523,
0.040647999999999997,-9.7145116163848773,0.0081003396754616569,-0.13603430937471608,-9.3057275619651669,0.93874692901913126,0.14909846874334309,-0.050638559632864476,-0.40641166061992312,0.0084803686898076523,
0.041537999999999999,-9.7145116163848773,0.0081003396754616569,-0.13603974970546565,-9.3005509559831996,0.87244251614496893,0.14918553601729759,-0.047583929813360501,-0.40614412410271111,0.0084613921848254031,
0.042967999999999999,-9.7145116163848773,0.0081003396754616569,-0.13604519003621521,-9.2960155475810478,0.81824677190315398,0.14722303029278211,-0.045172956315534113,-0.40583266475408336,0.0085699379952208308,
0.044407000000000002,-9.7145116163848773,0.0081003396754616569,-0.13605063036696477,-9.2934167515040382,0.76622836189446997,0.14434299871248071,-0.04271830230911329,-0.40585648352098669,0.00873875341734872,
0.044585,-9.706935756359929,-0.082379475944974981,-0.14166351578675482,-9.2934167515040382,0.76622836189446997,0.1443379267143278,-0.042718302584998161,-0.40585648210120762,0.00873875341734872,
0.045844000000000003,-9.706935756359929,-0.082379475944974981,-0.14166895611750438,-9.2876474130355948,0.72654481415935734,0.14177491896297295,-0.040918688450894476,-0.40546451395908567,0.0088332946300889708,
0.047258000000000001,-9.706935756359929,-0.082379475944974981,-0.14167439644825394,-9.2807635022126718,0.68000448461860452,0.13831240508424214,-0.038704505282784726,-0.40506586264413075,0.0086209322496610084,
0.048544999999999998,-9.700549943750234,-0.15853169536204959,-0.14252315117902675,-9.2807635022126718,0.68000448461860452,0.13830733308608922,-0.038704505558669597,-0.40506586122435168,0.0086209322496610084,
0.048698999999999999,-9.700549943750234,-0.15853169536204959,-0.14252859150977631,-9.2732649883437137,0.63158732867606748,0.13641041370789228,-0.036354632647957436,-0.4047787463330661,0.0085674320290203988,
0.050133999999999998,-9.700549943750234,-0.15853169536204959,-0.14252791069477921,-9.266801030204677,0.59362532934732348,0.13559435858737673,-0.034650418377187457,-0.40461149804021918,0.0085996980608362885,
0.051588000000000002,-9.700549943750234,-0.15853169536204959,-0.14252722987978211,-9.2614859847527331,0.55313083328050261,0.13276925524576991,-0.032601287678610064,-0.40416003621612201,0.0081505993454257623,
0.052468000000000001,-9.6908179468179956,-0.21502605844687031,-0.14807064488507429,-9.2614859847527331,0.55313083328050261,0.13276988996681294,-0.032601287644085222,-0.40416003639379627,0.0081505993454257623,
0.053017000000000002,-9.6908179468179956,-0.21502605844687031,-0.14806996407007719,-9.2588993807790434,0.52180507421458655,0.1300816777120718,-0.031106272232664496,-0.40424766119519429,0.0078709830818925221,
0.054457999999999999,-9.6908179468179956,-0.21502605844687031,-0.14806928325508009,-9.252280039144642,0.49640840823459209,0.12850395584159635,-0.029994265174485599,-0.40386381814405992,0.0081474021050009972,
0.055863999999999997,-9.6908179468179956,-0.21502605844687031,-0.14806860244008299,-9.2442974860656477,0.46308859701122662,0.12611578279275548,-0.028353763875460052,-0.40349229825134403,0.0082703642352337358,
0.056411000000000003,-9.6838909041326779,-0.26239386622110417,-0.15285694092155766,-9.2442974860656477,0.46308859701122662,0.12611641751379851,-0.028353763840935211,-0.40349229842901829,0.0082703642352337358,
0.057298000000000002,-9.6838909041326779,-0.26239386622110417,-0.15285626010656056,-9.235487078798517,0.43201559651716448,0.12423603007212081,-0.026840587369577652,-0.4030478448500367,0.008059851590420785,
0.058751999999999999,-9.6838909041326779,-0.26239386622110417,-0.15285557929156346,-9.2319623546939074,0.4035792596929893,0.12464952919374286,-0.025383105141523234,-0.40299956914976337,0.008403729239910911,
0.060174999999999999,-9.6838909041326779,-0.26239386622110417,-0.15285391129482057,-9.2280979376376635,0.37698914331346001,0.12229996640664346,-0.023970614600456103,-0.40273123842833375,0.008573570440908054,
0.060366000000000003,-9.6778257024107575,-0.30338185729630118,-0.16261003465262422,-9.2280979376376635,0.37698914331346001,0.12230152147319888,-0.02397061451587024,-0.40273123886363577,0.008573570440908054,
0.061637999999999998,-9.6778257024107575,-0.30338185729630118,-0.16260836665588133,-9.228865048742481,0.35597924113781149,0.12092342480468574,-0.022955756872596988,-0.40282367885749892,0.0085765762105470718,
0.063083,-9.6778257024107575,-0.30338185729630118,-0.16260669865913843,-9.2290987804021043,0.33617949919989976,0.11943236642836595,-0.021940610387532342,-0.40284721779828953,0.0088498140184284022,
0.064308000000000004,-9.6710703634330137,-0.35200876349621579,-0.16280918861803029,-9.2290987804021043,0.33617949919989976,0.11943392149492137,-0.02194061030294648,-0.40284721823359154,0.0088498140184284022,
0.064473000000000003,-9.6710703634330137,-0.35200876349621579,-0.16280752062128739,-9.2265916123623182,0.31837198546638579,0.11858647322903802,-0.020951638611976374,-0.40265843562497389,0.0087508027246392291,
0.065914,-9.6710703634330137,-0.35200876349621579,-0.1628058526245445,-9.2235160431863967,0.29708985925022796,0.11756678668887877,-0.019894142753065711,-0.40247747173679338,0.0086038798507847014,
0.067343,-9.6710703634330137,-0.35200876349621579,-0.16280418462780161,-9.2207988139862138,0.27529023385638385,0.1181417958881144,-0.018672308580264502,-0.40235550405398468,0.0087125754554492202,
0.068251999999999993,-9.6681621548323893,-0.39253222896039597,-0.16298449335691437,-9.2207988139862138,0.27529023385638385,0.11814335095466981,-0.018672308495678639,-0.4023555044892867,0.0087125754554492202,
0.068796999999999997,-9.6681621548323893,-0.39253222896039597,-0.16298282536017147,-9.2240723092959556,0.25941931987623462,0.11847497013474348,-0.017965311816742668,-0.40252112803141155,0.0088050015994093622,
0.070210999999999996,-9.6681621548323893,-0.39253222896039597,-0.16297893027315774,-9.2257589202161192,0.24558526275906598,0.11812591937258059,-0.017158600085480015,-0.40244269898492729,0.0086355448832848118,
0.071618000000000001,-9.6681621548323893,-0.39253222896039597,-0.16297503518614401,-9.2311795913748345,0.23247527826393474,0.11786037420913528,-0.016456114395522064,-0.40276867002687439,0.0087450071893904521,
0.072187000000000001,-9.6655574313386516,-0.42804468639842647,-0.16834383439772255,-9.2311795913748345,0.23247527826393474,0.11786400558286024,-0.016456114197998122,-0.40276867104338671,0.0087450071893904521,
0.073052000000000006,-9.6655574313386516,-0.42804468639842647,-0.16833993931070881,-9.2345324934180173,0.22228206747311927,0.11918916712376143,-0.015908313160310186,-0.40277981409542535,0.0087478830691661187,
0.074493000000000004,-9.6655574313386516,-0.42804468639842647,-0.16833604422369508,-9.2387078193883934,0.20656530608063994,0.12010852020945795,-0.015078796678746375,-0.40306552605199131,0.0086702961345737836,
0.075922000000000003,-9.6655574313386516,-0.42804468639842647,-0.16833214913668135,-9.2381667921313202,0.19176146178126638,0.12159539459104227,-0.014215616897645746,-0.40302648080744424,0.0087479278182307357,
0.076123999999999997,-9.6728225976370137,-0.45704901271650472,-0.170430381626623,-9.2381667921313202,0.19176146178126638,0.12159902596476722,-0.014215616700121806,-0.40302648182395656,0.0087479278182307357,
0.077341999999999994,-9.6728225976370137,-0.45704901271650472,-0.17042648653960926,-9.2389046458624922,0.17894979958954646,0.12362884658340767,-0.013508468279385705,-0.40310093851049594,0.0088122348990473578,
0.078783000000000006,-9.6728225976370137,-0.45704901271650472,-0.17042259145259553,-9.2399497863505307,0.16988114127318868,0.12397271675802468,-0.012901828791306065,-0.4030979408634533,0.0086789167143473348,
0.080060000000000006,-9.6793974183653617,-0.4949249149168598,-0.17232503755753051,-9.2399497863505307,0.16988114127318868,0.12397634813174964,-0.012901828593782125,-0.40309794187996562,0.0086789167143473348,
0.080221000000000001,-9.6793974183653617,-0.4949249149168598,-0.17231854815276268,-9.245543097815748,0.16405525513515129,0.12493487025834267,-0.01259259739366499,-0.40337367314285622,0.0087977922573478223,
0.081689999999999999,-9.6793974183653617,-0.4949249149168598,-0.17231205874799485,-9.2527088778792788,0.1587759868595065,0.1258648038872775,-0.012199680678199929,-0.40357242321430659,0.0088319289368552437,
0.083068000000000003,-9.6793974183653617,-0.4949249149168598,-0.17230556934322702,-9.2618958119459744,0.15027120782461997,0.12601784395301513,-0.011697511175339461,-0.40402534896959974,0.0087464994650744404,
0.084006999999999998,-9.680382560035028,-0.52834539630031996,-0.16845382135411568,-9.2618958119459744,0.15027120782461997,0.12602389399859346,-0.011697510846254951,-0.40402535066315876,0.0087464994650744404,
0.084542999999999993,-9.680382560035028,-0.52834539630031996,-0.16844733194934786,-9.2704664195363407,0.14156201975054006,0.12731301713402843,-0.011249078860279862,-0.40435236054330392,0.0086996237553283815,
0.085944000000000007,-9.680382560035028,-0.52834539630031996,-0.16844084254458003,-9.2735820735573711,0.13188343667220051,0.12779234353569865,-0.010688584439797116,-0.40448086871593852,0.0086742078156596351,
0.087400000000000005,-9.680382560035028,-0.52834539630031996,-0.1684343531398122,-9.2709325330399075,0.1248556809825716,0.12857945392039263,-0.010238550622430842,-0.40439649250964643,0.0085391246897713879,
0.087960999999999998,-9.6977946365298333,-0.54425815837163938,-0.16616402154677401,-9.2709325330399075,0.1248556809825716,0.12858550396597096,-0.010238550293346332,-0.40439649420320545,0.0085391246897713879,
0.088803000000000007,-9.6977946365298333,-0.54425815837163938,-0.16615753214200618,-9.2694925356829589,0.12523162992773515,0.12875401832935593,-0.010151698204311554,-0.40432261150940352,0.0084701393314494805,
0.090247999999999995,-9.6977946365298333,-0.54425815837163938,-0.16614486031814193,-9.2708527196444948,0.12302453422799152,0.12819511773301687,-0.0099934210391821078,-0.40433988045513325,0.0083860743409437111,
0.091702000000000006,-9.6977946365298333,-0.54425815837163938,-0.16613218849427769,-9.2761604484947551,0.12151274649802744,0.12860378935137007,-0.0098312632618816915,-0.40457196148200281,0.0083100148116562432,
0.091869000000000006,-9.7137154055066688,-0.55587230429665346,-0.16404208137947132,-9.2761604484947551,0.12151274649802744,0.12861560324103821,-0.0098312626192802351,-0.40457196478900587,0.0083100148116562432,
0.093112,-9.7137154055066688,-0.55587230429665346,-0.16402940955560708,-9.2843722140868525,0.11862342490815261,0.12980234167690496,-0.0095479286140812223,-0.40502773411201382,0.0083689568582210501,
0.094534000000000007,-9.7137154055066688,-0.55587230429665346,-0.16401673773174283,-9.2868028639856313,0.11258424225706815,0.1300136062142955,-0.0091324194410256857,-0.40517105948545107,0.0083559848473387013,
0.095895999999999995,-9.7134062848990208,-0.56617429744215209,-0.16355246386856859,-9.2868028639856313,0.11258424225706815,0.13002542010396365,-0.0091324187984242293,-0.40517106279245413,0.0083559848473387013,
0.095971000000000001,-9.7134062848990208,-0.56617429744215209,-0.16353979204470434,-9.2846083845302783,0.10838899264503395,0.13056647896496851,-0.0089058228891993104,-0.40515111015015148,0.0084021709287605082,
0.097436999999999996,-9.7134062848990208,-0.56617429744215209,-0.16352712022084009,-9.2776899672112272,0.10832652041378309,0.12976795378760925,-0.0088047251127336863,-0.40476446972451047,0.0084153194248098983,
0.098847000000000004,-9.7134062848990208,-0.56617429744215209,-0.16351444839697585,-9.274056324241295,0.11160560891798668,0.12809049239049253,-0.0087963829674524794,-0.40464657920673741,0.0083825092654273136,
0.099877999999999995,-9.7168620344193553,-0.58615546991847922,-0.16178211028437081,-9.274056324241295,0.11160560891798668,0.12810230628016067,-0.008796382324851023,-0.40464658251374047,0.0083825092654273136,
0.100273,-9.7168620344193553,-0.58615546991847922,-0.16175744786425456,-9.2690987939408114,0.11658332250297529,0.12555148303587121,-0.0090104209983802638,-0.40436995576477436,0.0083806499902720436,
0.10169,-9.7168620344193553,-0.58615546991847922,-0.1617327854441383,-9.270580380957103,0.11859180955697321,0.12258938960859118,-0.0090571025164964594,-0.40440660061605421,0.0084240095912003869,
0.10316400000000001,-9.7168620344193553,-0.58615546991847922,-0.16170812302402204,-9.2748900343506797,0.11941902545978372,0.12078013897578546,-0.0090070864921627438,-0.40464168326575445,0.0082704075394236676,
0.103781,-9.7200428453425811,-0.58758689995857905,-0.16009330054187104,-9.2748900343506797,0.11941902545978372,0.12080313164939931,-0.0090070852415055982,-0.40464168970197861,0.0082704075394236676,
0.10456699999999999,-9.7200428453425811,-0.58758689995857905,-0.16006863812175479,-9.2763775099225452,0.11927106058997274,0.11994238045987003,-0.0089324292384304581,-0.40470445806776095,0.0082980069419788614,
0.10601099999999999,-9.7200428453425811,-0.58758689995857905,-0.16004397570163853,-9.2730811426619013,0.11699457389686227,0.11750581802028109,-0.0088102445811018525,-0.40466024092194769,0.008381950159742687,
0.107447,-9.7200428453425811,-0.58758689995857905,-0.16001931328152227,-9.2633709576459093,0.11883505634359663,0.11771611118122524,-0.0088357682712738046,-0.40413684280996104,0.008365092822275582,
0.107705,-9.7196342932306194,-0.58885462072732797,-0.16933990381121067,-9.2633709576459093,0.11883505634359663,0.11773910385483909,-0.008835767020616659,-0.4041368492461852,0.008365092822275582,
0.108871,-9.7196342932306194,-0.58885462072732797,-0.16931524139109441,-9.2541481878781813,0.12077259802085315,0.11653878835620672,-0.0087592029005014015,-0.40388587073517124,0.0082554827255094335,
0.110301,-9.7196342932306194,-0.58885462072732797,-0.16930175248607984,-9.2432060906689824,0.1243667286034008,0.11570414815382955,-0.0088275817708031896,-0.40329507787982338,0.0083878705138470278,
0.111696,-9.7092867208781772,-0.59079093867410915,-0.17144467744743985,-9.2432060906689824,0.1243667286034008,0.11571672380491918,-0.0088275810867666938,-0.40329508140006254,0.0083878705138470278,
0.111719,-9.7092867208781772,-0.59079093867410915,-0.17143118854242528,-9.2382153653142929,0.12518608220729321,0.11529984764666332,-0.0086960841627758793,-0.40309394198175874,0.0084332387869276264,
0.113152,-9.7092867208781772,-0.59079093867410915,-0.17141769963741071,-9.2407889488558439,0.12387212944698821,0.11335508607780299,-0.0086786222456241204,-0.40314279655859664,0.008506217212283897,
0.11459999999999999,-9.7092867208781772,-0.59079093867410915,-0.17140421073239615,-9.2479878869905967,0.12176013185867345,0.11448818292500182,-0.0084220824505091829,-0.40350244222318798,0.0086748935551726053,
0.115609,-9.6997166791388416,-0.59736493364332399,-0.17340894320386885,-9.2479878869905967,0.12176013185867345,0.11450075857609145,-0.0084220817664726871,-0.40350244574342714,0.0086748935551726053,
0.11602700000000001,-9.6997166791388416,-0.59736493364332399,-0.17339545429885428,-9.2531352192393364,0.12167178424927458,0.11330637623415181,-0.0084476675591721347,-0.40372275591090273,0.0087683062205680465,
0.117442,-9.6997166791388416,-0.59736493364332399,-0.17338196539383971,-9.2497566877128179,0.1211587603167044,0.11244781608282711,-0.0083662073921744323,-0.40364978478981339,0.0087465502144206293,
0.118885,-9.6997166791388416,-0.59736493364332399,-0.17336847648882514,-9.2414992877702264,0.12355603110254296,0.11243134412367803,-0.0084383320019786236,-0.40321579874232394,0.0087669846971818646,
0.119542,-9.6975882414869314,-0.60319361188494869,-0.17476590779573736,-9.2414992877702264,0.12355603110254296,0.11244391977476766,-0.0084383313179421278,-0.40321580226256309,0.0087669846971818646,
0.120338,-9.6975882414869314,-0.60319361188494869,-0.17476354485192849,-9.2327812410233836,0.12406375047248941,0.11153270244121796,-0.0085535999524269987,-0.40285743505748878,0.008627712030837998,
0.12178899999999999,-9.6975882414869314,-0.60319361188494869,-0.17476118190811962,-9.2279549969051988,0.1224521633071035,0.11276543008352921,-0.0083522505793366102,-0.40258380307692149,0.0086342848138623099,
0.12321,-9.6975882414869314,-0.60319361188494869,-0.17475881896431075,-9.2348734331753892,0.11901928645188288,0.11265050228603235,-0.008245836150741398,-0.40283052638434702,0.0086547988724578456,
0.12348000000000001,-9.68432745037369,-0.61079005202094572,-0.17512787356853554,-9.2348734331753892,0.11901928645188288,0.11265270524890093,-0.0082458360309140433,-0.40283052700101141,0.0086547988724578456,
0.124612,-9.68432745037369,-0.61079005202094572,-0.17512551062472667,-9.2492186641202423,0.11368466497947649,0.11380028089329443,-0.0079565161860699445,-0.40337207393644731,0.0087103406658556419,
0.12604899999999999,-9.68432745037369,-0.61079005202094572,-0.1751231476809178,-9.2686721426263698,0.1110291414021306,0.11442507750279825,-0.0078469518049282764,-0.40416793355466496,0.0087940290341016036,
0.127443,-9.6720147918902981,-0.61321799553170431,-0.17547035074714645,-9.2686721426263698,0.1110291414021306,0.11442728046566683,-0.0078469516851009218,-0.40416793417132935,0.0087940290341016036,
0.12749199999999999,-9.6720147918902981,-0.61321799553170431,-0.17546798780333758,-9.2906606590087453,0.10899868776266683,0.11572404280024562,-0.0077046888834862619,-0.40519239252688494,0.0086999409258340776,
0.12892500000000001,-9.6720147918902981,-0.61321799553170431,-0.17546562485952871,-9.3058903716208228,0.10723658076764551,0.11678099602084722,-0.0076520112550590297,-0.40589427520725657,0.0086120497356289294,
0.13034499999999999,-9.6720147918902981,-0.61321799553170431,-0.17549365174357609,-9.3114350591225215,0.10442253118903186,0.1181112673156041,-0.007478365490529458,-0.40613743644658834,0.0086965803142404728,
0.131354,-9.6971221247360351,-0.61537016280976697,-0.17491463640832033,-9.3114350591225215,0.10442253118903186,0.11808513796599945,-0.0074783669118020932,-0.40613742913233014,0.0086965803142404728,
0.13178000000000001,-9.6971221247360351,-0.61537016280976697,-0.17494266329236771,-9.3142347807884835,0.10059145338372089,0.12017486890695597,-0.0073193812392630623,-0.40614667859903797,0.0084638197604416775,
0.133217,-9.6971221247360351,-0.61537016280976697,-0.17497069017641509,-9.3231260017375615,0.09409088124911881,0.12261854655711787,-0.0069919453522818212,-0.40646568028683217,0.0083798115412145723,
0.134633,-9.6971221247360351,-0.61537016280976697,-0.17499871706046247,-9.3411394557148313,0.090386310954777629,0.12486996885222419,-0.0068529822474507601,-0.40727801032975253,0.0083377071049407746,
0.135295,-9.7078313868368546,-0.62778529368958347,-0.16970758902961106,-9.3411394557148313,0.090386310954777629,0.12484383950261954,-0.0068529836687233952,-0.40727800301549433,0.0083377071049407746,
0.13606499999999999,-9.7078313868368546,-0.62778529368958347,-0.16973561591365843,-9.3650849507622702,0.090607787697553399,0.12707367537962072,-0.0068399235331085785,-0.40835518679201493,0.0083934122802637196,
0.13750699999999999,-9.7078313868368546,-0.62778529368958347,-0.16976364279770581,-9.3892297160987876,0.090206148632168123,0.12804985321060211,-0.0068600426497985138,-0.40947730465851306,0.0082522802742749819,
0.13894500000000001,-9.7078313868368546,-0.62778529368958347,-0.16979166968175319,-9.405617457661716,0.090233186979503527,0.12999015047119658,-0.0068874216070202434,-0.41034964343889097,0.0081698891355146946,
0.139205,-9.7177870290395916,-0.63556492692287714,-0.16479509313500881,-9.405617457661716,0.090233186979503527,0.12996402112159192,-0.0068874230282928786,-0.41034963612463277,0.0081698891355146946,
0.140373,-9.7177870290395916,-0.63556492692287714,-0.16484671747947091,-9.4086921328809385,0.08831888118168843,0.13163403727787928,-0.006790000444360446,-0.41044271220705564,0.0082838084828050912,
0.14182800000000001,-9.7177870290395916,-0.63556492692287714,-0.16489834182393301,-9.408590969605779,0.084552271334494861,0.13391846719692332,-0.0066829488889624039,-0.41038424662504797,0.0083011495345976776,
0.14313699999999999,-9.765876128215476,-0.64246945809650591,-0.16110511620005738,-9.408590969605779,0.084552271334494861,0.13387033803128789,-0.0066829515068869633,-0.41038423315249123,0.0083011495345976776,
0.14326800000000001,-9.765876128215476,-0.64246945809650591,-0.16115674054451948,-9.4130063186552952,0.079444497491418617,0.13629522018039236,-0.0064221393489144228,-0.41039240273043492,0.0082693007627222398,
0.144673,-9.765876128215476,-0.64246945809650591,-0.16120836488898158,-9.4312343646560421,0.076381170387846517,0.13926107604284652,-0.0061887765513619656,-0.41123132546056496,0.0083833768940506769,
0.14611199999999999,-9.765876128215476,-0.64246945809650591,-0.16125998923344367,-9.4562213260298851,0.075758438339768364,0.14116402649886373,-0.0062132431973642606,-0.41238482882916588,0.0084417756554932277,
0.14707700000000001,-9.7808977839439919,-0.65317392305840583,-0.15630859854773216,-9.4562213260298851,0.075758438339768364,0.1411158973332283,-0.00621324581528882,-0.41238481535660915,0.0084417756554932277,
0.14754400000000001,-9.7808977839439919,-0.65317392305840583,-0.15636022289219426,-9.4843970579803045,0.074626874575704785,0.14366338162561987,-0.0062750755101182217,-0.41369511559228955,0.008471627822610352,
0.14896699999999999,-9.7808977839439919,-0.65317392305840583,-0.15641184723665635,-9.5027969067839084,0.073834541489205457,0.14580203492534188,-0.0062628981134177511,-0.41472684386920955,0.0085928786083116545,
0.15040500000000001,-9.7808977839336766,-0.65317392305840583,-0.15650869007538054,-9.5042478725290298,0.070048910782785023,0.14861800302725398,-0.0060627031214211284,-0.41467426846110167,0.008732944561914497,
0.15096000000000001,-9.7948761514554388,-0.66266258129108779,-0.15185718830870082,-9.5042478725194126,0.070048910782785023,0.14852771684397889,-0.0060627080324228769,-0.4146742431873196,0.0087329445619139731,
0.15184,-9.7948761514451235,-0.66266258129108779,-0.15195403114742501,-9.4986458569464975,0.064819040089497126,0.15056731873224602,-0.0057809628435459741,-0.4144471239674653,0.0086322380999647452,
0.15325900000000001,-9.7948761514348082,-0.66266258129108779,-0.15205087398614919,-9.4912509662297335,0.060996343744521467,0.15204198860191059,-0.0055395976729844098,-0.41385436734927833,0.008627633434822625,
0.154691,-9.7948761514244929,-0.66266258129108779,-0.15214771682487338,-9.5047157282578141,0.061688969346243398,0.15258614016219582,-0.0054674141516545339,-0.41449178714850726,0.0086884916616241665,
0.154888,-9.835610556026614,-0.67243087813452052,-0.14649940436023684,-9.5047157282481969,0.061688969346243398,0.15249585397892074,-0.0054674190626562823,-0.4144917618747252,0.0086884916616236426,
0.15612400000000001,-9.8356105560162987,-0.67243087813452052,-0.14659624719896103,-9.525945260795659,0.066308056109957589,0.15186600831737285,-0.0056091877797046696,-0.41540902631490167,0.0086440979654843625,
0.15756500000000001,-9.8356105560059834,-0.67243087813452052,-0.14669309003768521,-9.5535510912896751,0.069870347444001502,0.15215254143890361,-0.0058040274879725658,-0.41681715488157972,0.0088016847191762365,
0.158804,-9.8615706106679557,-0.6741145284924065,-0.14132868190383902,-9.5535510912800579,0.069870347444001502,0.15206225525562853,-0.0058040323989743143,-0.41681712960779765,0.0088016847191757126,
0.15898599999999999,-9.8615706106576404,-0.6741145284924065,-0.1414255247425632,-9.569502940503865,0.071242193546957877,0.1517643380607156,-0.005901182792007781,-0.41768152444573392,0.0086466317468819071,
0.16042200000000001,-9.8615706106576404,-0.6741145284924065,-0.14157060538690786,-9.5670647535353073,0.070143369888244711,0.15152310234924055,-0.0058416853258481593,-0.41747987006531839,0.0085975722783226075,
0.161858,-9.8615706106576404,-0.6741145284924065,-0.14171568603125251,-9.5522265740884276,0.067890990756908909,0.15123038183220813,-0.0057252020674838835,-0.41691381337471778,0.0084815632497097747,
0.16272900000000001,-9.8857695885315877,-0.67560932794857043,-0.14239670010884234,-9.5522265740884276,0.067890990756908909,0.1510951237396374,-0.0057252094246752613,-0.41691377551259612,0.0084815632497097747,
0.163304,-9.8857695885315877,-0.67560932794857043,-0.14254178075318699,-9.5296690749746542,0.070267702626030756,0.15107395223830178,-0.0057274846467479492,-0.41567722351338127,0.0083915717179550361,
0.16475100000000001,-9.8857695885315877,-0.67560932794857043,-0.14268686139753164,-9.5266285010210616,0.076314440235704842,0.15081955423136725,-0.0058494323659865153,-0.41550931803772578,0.008431346633297249,
0.166158,-9.8857695885315877,-0.67560932794857043,-0.1428319420418763,-9.5379439152152585,0.085522648291980419,0.1509569463397375,-0.0062060652307387417,-0.4160651107463173,0.0085004226555932712,
0.16666300000000001,-9.8859889611954657,-0.67720548391765234,-0.14224971065054917,-9.5379439152152585,0.085522648291980419,0.15082168824716677,-0.0062060725879301195,-0.41606507288419564,0.0085004226555932712,
0.16758100000000001,-9.8859889611954657,-0.67720548391765234,-0.14239479129489382,-9.556186533019952,0.090488269505580241,0.15084548693542224,-0.0064634659486062992,-0.4170012860937175,0.0085676539760121007,
0.169049,-9.8859889611954657,-0.67720548391765234,-0.14253987193923848,-9.5654393661862276,0.090017638318550891,0.15085350680287815,-0.0064503586606539922,-0.41766383381707972,0.0085546861653028293,
0.17044300000000001,-9.8859889611954657,-0.67720548391765234,-0.14274660553926011,-9.5543223572399913,0.088897859443323735,0.1510270943768664,-0.0065130968076057881,-0.41717486858748676,0.0085711849528656084,
0.17056199999999999,-9.9166400413130127,-0.66760917708038092,-0.14223026684362283,-9.5543223572399913,0.088897859443323735,0.15083435748535673,-0.0065131072912830998,-0.41717481463561223,0.0085711849528656084,
0.171898,-9.9166400413130127,-0.66760917708038092,-0.14243700044364446,-9.5355796965515669,0.090959356683798939,0.14961261521673896,-0.0064866536880845401,-0.41643257844819831,0.008301682283123878,
0.173314,-9.9166400413130127,-0.66760917708038092,-0.14264373404366609,-9.5090778377858243,0.095473417535262187,0.1476870971985175,-0.0066210891744195328,-0.41508966515483381,0.0081141931923661443,
0.17449000000000001,-9.9452318401029984,-0.65908742893654737,-0.14638913155698433,-9.5090778377858243,0.095473417535262187,0.14749436030700783,-0.0066210996580968445,-0.41508961120295929,0.0081141931923661443,
0.17476800000000001,-9.9452318401029984,-0.65908742893654737,-0.14659586515700596,-9.4957528912088129,0.10752816889778072,0.14633090018740397,-0.0072027320283322514,-0.41442980082477432,0.0082480457719816252,
0.176204,-9.9452318401029984,-0.65908742893654737,-0.14680259875702759,-9.4998274302403765,0.11202080820569453,0.14529097262496679,-0.0073334764396006625,-0.41468665657047143,0.0081191963669308784,
0.17762600000000001,-9.9452318401029984,-0.65908742893654737,-0.14700933235704922,-9.509899548636211,0.11318862175768769,0.14466318865688726,-0.0073197462327008744,-0.41522775551685026,0.0081130598814189714,
0.17843000000000001,-9.9094877128698382,-0.64533649431584272,-0.15043635560060487,-9.509899548636211,0.11318862175768769,0.14447045176537759,-0.0073197567163781861,-0.41522770156497574,0.0081130598814189714,
0.17904500000000001,-9.9094877128698382,-0.64533649431584272,-0.1506430892006265,-9.51228180129179,0.11603230256820492,0.1463153995876304,-0.0075257436978428535,-0.4156702467548678,0.0082410253179778219,
0.18048800000000001,-9.9094877128698382,-0.64533649431584272,-0.15090591783025789,-9.4945007940323922,0.11009446455416119,0.14567970535886604,-0.0072456613065923969,-0.41481153173690627,0.0082710849273186574,
0.181924,-9.9094877128698382,-0.64533649431584272,-0.15116874645988929,-9.4698288912346769,0.1098718378071773,0.14600455104976812,-0.0070979360971887258,-0.41378168635852713,0.008310631347777004,
0.18237800000000001,-9.87724192773379,-0.64522310364033197,-0.15445175958645671,-9.4698288912346769,0.1098718378071773,0.14575951699110712,-0.0070979494255037218,-0.4137816177673681,0.008310631347777004,
0.183339,-9.87724192773379,-0.64522310364033197,-0.15471458821608811,-9.4368830308010487,0.11600148326916483,0.14610832923036332,-0.0075723105729433599,-0.41219657452665265,0.0081181284107561015,
0.184779,-9.87724192773379,-0.64522310364033197,-0.1549774168457195,-9.4245021312988904,0.11094144840851036,0.14514997893927348,-0.0072065930173988522,-0.41149386153491835,0.0081176463262698645,
0.18621499999999999,-9.87724192773379,-0.64522310364033197,-0.1552402454753509,-9.4298173106768672,0.1096675395590903,0.1449543426379668,-0.007228786061486644,-0.4118347056286632,0.0082619389873989056,
0.186308,-9.8878888003227452,-0.64512244611249914,-0.15584432738170054,-9.4298173106768672,0.1096675395590903,0.14470930857930581,-0.0072287993898016399,-0.41183463703750417,0.0082619389873989056,
0.18765899999999999,-9.8878888003227452,-0.64512244611249914,-0.15610715601133193,-9.4441248726902742,0.1084862076584895,0.14571159931342759,-0.0073431433341262318,-0.41248148090263764,0.008381439373172617,
0.18906700000000001,-9.8878888003227452,-0.64512244611249914,-0.15636998464096333,-9.4596913811308809,0.10111366042083959,0.144448343956014,-0.0068948947188664407,-0.41349791809336894,0.0083982719872650966,
0.19031300000000001,-9.8706061553093818,-0.64988352492512691,-0.15393652626135351,-9.4596913811308809,0.10111269872228956,0.14416840312508211,-0.006894867728484029,-0.41349783973093163,0.0083982717180616298,
0.19050300000000001,-9.8706061553093818,-0.64988455646300125,-0.1542367966212119,-9.4539553920489556,0.10030727186843259,0.14357416171275181,-0.0069449508753909031,-0.41309932218624518,0.0084851050412303747,
0.19193099999999999,-9.8706061553093818,-0.64988558800087559,-0.15453706698107028,-9.4433072419667337,0.1012860048243121,0.14212865265480995,-0.0069984598291565302,-0.41271683425775829,0.0083768100584598985,
0.19340399999999999,-9.8706061553093818,-0.64988661953874993,-0.15483733734092867,-9.427354378750529,0.1004233829344429,0.14100873576582099,-0.0069523445746681144,-0.41182351041313259,0.0082635778542034417,
0.19430500000000001,-9.8270618336590516,-0.65195869049152833,-0.15247768780758233,-9.427354378750529,0.10042242123589287,0.1407287949348891,-0.0069523175842857027,-0.41182343205069527,0.0082635775849999749,
0.19481499999999999,-9.8270618336590516,-0.65195972202940267,-0.15277795816744072,-9.4256457895583701,0.1024438583708483,0.14120319239689896,-0.0071047218925375686,-0.41168023403422538,0.0084008790186782326,
0.19623199999999999,-9.8270618336590516,-0.65196075356727701,-0.1530782285272991,-9.4352594934344278,0.096941110553032214,0.14143969815913277,-0.0066842925123237308,-0.4121145972724663,0.0084286008054292143,
0.19766600000000001,-9.8270618336590516,-0.65196178510515135,-0.15337849888715749,-9.4484879399169799,0.095722694914289821,0.14263186616540349,-0.0066486403612380108,-0.41274904012651753,0.0083347731232081643,
0.19822400000000001,-9.8271987910113534,-0.65379842820440859,-0.15796877511452265,-9.4484879399169799,0.09572173321573979,0.14235192533447161,-0.0066486133708555991,-0.41274896176408021,0.0083347728540046975,
0.199105,-9.8271987910113534,-0.65379945974228293,-0.15826904547438103,-9.4584447910265794,0.09236015311933525,0.14305029874565411,-0.0066294271422773889,-0.41339940527791769,0.0084454240188539184,
0.20053099999999999,-9.8271987910113534,-0.65379945974228293,-0.15859049330680081,-9.4505197538666721,0.085997250125782104,0.1415139144477891,-0.0061905151278525625,-0.41292015234289242,0.008536583164697709,
0.20197999999999999,-9.8271987910113534,-0.65379945974228293,-0.15891194113922058,-9.4411202208300171,0.089205430204507677,0.14110753841338888,-0.0063757392870309052,-0.41254863887837617,0.0086364054774969116,
0.202152,-9.8475380267283956,-0.65973717290878475,-0.15672370337003888,-9.4411202208300171,0.089205430204507677,0.14080785391122461,-0.0063757555879870509,-0.41254855498919168,0.0086364054774969116,
0.203403,-9.8475380267283956,-0.65973717290878475,-0.15704515120245865,-9.4316911211375363,0.090939508919360132,0.13957549976789543,-0.0064514477305858721,-0.41191152110415818,0.00861073482101825,
0.20486199999999999,-9.8475380267283956,-0.65973717290878475,-0.15736659903487843,-9.4401754348469016,0.085980322554739891,0.13984703059172882,-0.0062170061862654611,-0.41237557374114697,0.0088153691262775474,
0.20608000000000001,-9.8746285261585189,-0.65585091232123438,-0.15525221709484541,-9.4401754348469016,0.085980322554739891,0.13954734608956454,-0.0062170224872216068,-0.41237548985196248,0.0088153691262775474,
0.206291,-9.8746285261585189,-0.65585091232123438,-0.15557366492726518,-9.455662149850907,0.085292172901568791,0.14012212035087382,-0.0062376154096928137,-0.41304491642037144,0.0087254828178901442,
0.207701,-9.8746285261585189,-0.65585091232123438,-0.15589511275968496,-9.4743049762180966,0.08062284699791171,0.14174318791651197,-0.0059114446786682753,-0.41399605122703453,0.0087788849641323927,
0.20913899999999999,-9.8746285261585189,-0.65585091232123438,-0.15621656059210473,-9.4809149104194077,0.077780434067324211,0.14142705617728657,-0.0058243381453740705,-0.41439099108521138,0.0086611063753215482,
0.21001700000000001,-9.8592059438309789,-0.65240274779858942,-0.15483734864714696,-9.4809149104194077,0.07777947236877418,0.14108964424100412,-0.0058243142810591106,-0.41439089663517487,0.0086611061061180813,
0.210563,-9.8592059438309789,-0.65240377933646376,-0.15519926371037934,-9.4728689594116666,0.078043892896953751,0.14099489684624861,-0.0059518092823243642,-0.41393965002303384,0.0086808548868918707,
0.21199200000000001,-9.8592059438309789,-0.6524048108743381,-0.15556117877361172,-9.4605229284967542,0.076806301762676374,0.14023891051605991,-0.0059275270841683738,-0.41353543499120865,0.0086279527618644946,
0.21343899999999999,-9.8592059438309789,-0.65240584241221244,-0.15592309383684411,-9.4465418974130291,0.080481478105212528,0.14192122253781919,-0.0060972585027977795,-0.41269890584079172,0.0086318786104053139,
0.213951,-9.8805790737025525,-0.65984320242070815,-0.15584005124579364,-9.4465418974130291,0.080480516406662497,0.14158381060153674,-0.0060972346384828196,-0.4126988113907552,0.0086318783412018471,
0.21487800000000001,-9.8805790737025525,-0.65984423395858249,-0.15620196630902602,-9.4496945507289727,0.075064902991417826,0.14334069343351472,-0.0059492027723685005,-0.41287814181712107,0.0084671283796143356,
0.21629000000000001,-9.8805790737025525,-0.65984526549645683,-0.15656388137225841,-9.4563035620760179,0.066020107903995998,0.14508464517439357,-0.0055790272349735583,-0.41311758231158269,0.0082598879360007045,
0.21777099999999999,-9.8805790737025525,-0.65984629703433118,-0.15692579643549079,-9.4624695155922876,0.063310514543593571,0.14812756246321612,-0.0054110568702641594,-0.41359159761349434,0.008346328944822224,
0.21788099999999999,-9.882730293368617,-0.66832983779927335,-0.15679879279115697,-9.4624695155922876,0.06330955284504354,0.14779015052693367,-0.0054110330059491995,-0.41359150316345783,0.0083463286756187572,
0.21917700000000001,-9.882730293368617,-0.66833086933714769,-0.15716070785438935,-9.4557543493712792,0.05920541532164246,0.14875568688914859,-0.0051705108624568834,-0.41327732827867081,0.0085284890488105895,
0.220586,-9.882730293368617,-0.66833086933714769,-0.15753300018863819,-9.4396817633563135,0.058332052026932826,0.14796334282258072,-0.0051597890661163343,-0.41256995242578953,0.008510798526344723,
0.22181799999999999,-9.8847384775957305,-0.67586017870150328,-0.1507919800865854,-9.4396817633563135,0.058332052026932826,0.14761625619888485,-0.0051598079454504026,-0.41256985526756612,0.008510798526344723,
0.222025,-9.8847384775957305,-0.67586017870150328,-0.15116427242083424,-9.4203013128833391,0.062543685579429451,0.14794081764576586,-0.0054561255279638185,-0.41163470927757045,0.0084696805930845505,
0.223464,-9.8847384775957305,-0.67586017870150328,-0.15153656475508309,-9.407523223042352,0.063124160487700837,0.14845697335500349,-0.0054339552007348427,-0.41098655947440105,0.0082900578032115042,
0.22489799999999999,-9.8847384775957305,-0.67586017870150328,-0.15190885708933194,-9.4094168006757695,0.063804533289887375,0.1494065845062276,-0.0053549707015186597,-0.41117315471373461,0.0084296222802532003,
0.22577,-9.8581652598519867,-0.68335367093245547,-0.15042094947141027,-9.4094168006757695,0.063804533289887375,0.14905949788253173,-0.005354989580852728,-0.4111730575555112,0.0084296222802532003,
0.22634299999999999,-9.8581652598519867,-0.68335367093245547,-0.15079324180565912,-9.4163691407489214,0.062575383117538408,0.14982567839706176,-0.0052483005421927213,-0.41144457224799347,0.0083157426953546255,
0.22777600000000001,-9.8581652598519867,-0.68335367093245547,-0.15116553413990796,-9.4216592408779132,0.063425454527986022,0.15043923200916387,-0.0051582311540770594,-0.41188384648800674,0.0084164794613017027,
0.229215,-9.8581652598519867,-0.68335367093245547,-0.15153782647415681,-9.4144210256375374,0.07070111116011564,0.1491033200192671,-0.0055239359363050506,-0.41152572896698075,0.0083743135038749691,
0.22971,-9.8333575851462989,-0.67950513489344444,-0.1500682860798232,-9.4144210256375374,0.07070111116011564,0.14875623339557123,-0.0055239548156391189,-0.41152563180875734,0.0083743135038749691,
0.23060700000000001,-9.8333575851359836,-0.67950616643131878,-0.15045640220506529,-9.400486882375505,0.075475433377017009,0.14825608626133741,-0.005661181665684638,-0.41085418238597843,0.0084028783268306675,
0.23206399999999999,-9.8333575851256683,-0.67950719796919312,-0.15084451833030738,-9.3832624108818354,0.080806595228758174,0.14623687449069078,-0.0059152632761546968,-0.41005186585191061,0.0082564795537046643,
0.23350199999999999,-9.833357585115353,-0.67950822950706746,-0.15123263445554946,-9.3733299081689214,0.08700969993005761,0.14647935843876192,-0.0061400197458794901,-0.40952451617948965,0.0085700586203596284,
0.23360500000000001,-9.8486403034918197,-0.67609676632593507,-0.14693104340121521,-9.3733299081593042,0.087008738231507579,0.14611751935930839,-0.0061399972102478178,-0.4095244148912629,0.0085700583511556377,
0.23491200000000001,-9.8486403034815044,-0.67609779786380941,-0.1473191595264573,-9.3765890090634141,0.085474080475289385,0.14463901709565219,-0.0060502685443431523,-0.40964922648008772,0.0086782940133659763,
0.23633299999999999,-9.8486403034711891,-0.67609882940168375,-0.14770727565169939,-9.38473935355929,0.085717527431483254,0.14383524274409978,-0.0060370456075790023,-0.40996592723646036,0.0085463713814569273,
0.23754700000000001,-9.830674899949722,-0.66822742999716644,-0.14981721240977139,-9.3847393535496728,0.085716565732933223,0.14347340366464625,-0.0060370230719473299,-0.40996582594823361,0.0085463711122529366,
0.23777799999999999,-9.8306748999394067,-0.66822846153504079,-0.15020532853501348,-9.3885850585141224,0.09073888202006973,0.142209465140234,-0.0062352079597070747,-0.41022219996215287,0.0087614531142992773,
0.23921700000000001,-9.8306748999290914,-0.66822949307291513,-0.15059344466025557,-9.3808891051201968,0.096700008192285386,0.13989870251762321,-0.0063886032311187037,-0.40990208120475613,0.0086756943595060112,
0.24065700000000001,-9.8306748999290914,-0.66823052461078947,-0.1509952699238484,-9.3659202162131088,0.10509687445700533,0.13641518523148713,-0.0068269616140093289,-0.40919735762486908,0.008644255362590501,
0.24150199999999999,-9.8138964189789082,-0.66177724232421742,-0.15297190381947565,-9.3659202162131088,0.1050959127584553,0.13604056517830354,-0.0068269397735824166,-0.40919725275935043,0.0086442550933870342,
0.24207100000000001,-9.8138964189789082,-0.66177827386209176,-0.15337372908306848,-9.3531560290107514,0.11054622749914708,0.13396512260133409,-0.0069911028620564079,-0.40852999006686691,0.0085114141993863999,
0.243501,-9.8138964189789082,-0.6617793053999661,-0.15377555434666132,-9.3510374091724842,0.11246911261585946,0.13085810129065745,-0.0071292754554074357,-0.40840222902977286,0.0085246861460739533,
0.24493200000000001,-9.8138964189789082,-0.66178033693784044,-0.15417737961025416,-9.3581899404424522,0.11341092045752285,0.12886876094261251,-0.0071925065224821066,-0.40864025244593793,0.0086782596949367841,
0.24543300000000001,-9.8118904102373907,-0.65605286342395519,-0.15802263331163485,-9.3581899404424522,0.11340995875897282,0.12849414088942893,-0.0071924846820551943,-0.40864014758041928,0.0086782594257333173,
0.24640799999999999,-9.8118904102373907,-0.65605389496182953,-0.15842445857522769,-9.3663503489601538,0.11042797525078489,0.12623988736100425,-0.0069659886769378454,-0.40907294477256156,0.0085821243187712906,
0.247835,-9.8118904102373907,-0.65605492649970387,-0.15882628383882053,-9.3708327061761825,0.11250108404844167,0.12315865481200274,-0.0071043768559498847,-0.40927021566145522,0.008492743561165781,
0.24923200000000001,-9.8118904102373907,-0.65605595803757821,-0.15922810910241336,-9.3675358760606748,0.11849197320412126,0.12093886246613958,-0.0074864564508938056,-0.40912319063793079,0.0086844733836922584,
0.24937500000000001,-9.8217691509025187,-0.65850678082063185,-0.16506903254666941,-9.3675358760606748,0.11849101150557123,0.12056424241295599,-0.0074864346104668933,-0.40912308577241213,0.0086844731144887916,
0.25067299999999998,-9.8217691509025187,-0.65850781235850619,-0.16548950801503134,-9.3577050804334441,0.11609286355216006,0.11792402623625313,-0.0071825947485165929,-0.40874516593943278,0.0088358064753677155,
0.25210100000000002,-9.8217691509025187,-0.65850884389638054,-0.16590998348339328,-9.3469982491594106,0.11394873676263972,0.1149512370556921,-0.0073630447892721893,-0.40818504148886375,0.0088430901174917607,
0.25332399999999999,-9.830994130865589,-0.66041548838708519,-0.17147120499916302,-9.3469982491594106,0.11394777506408969,0.11455922949272375,-0.0073630238946166878,-0.4081849317561464,0.0088430898482882939,
0.25352400000000003,-9.830994130865589,-0.66041651992495953,-0.17189168046752495,-9.3483021023176125,0.10546830526419088,0.1138615225810536,-0.0068466330851804083,-0.40806460103159081,0.0085460340808884098,
0.25495400000000001,-9.830994130865589,-0.66041755146283387,-0.17231215593588689,-9.3622961901965045,0.10023179066506305,0.11060450329986179,-0.0067459892708441474,-0.40878586359698488,0.0083791618068323262,
0.25642100000000001,-9.830994130865589,-0.66041858300070821,-0.17273263140424883,-9.3840794636517373,0.094526471055782463,0.1089742792134199,-0.0064186004175491671,-0.40963545981209265,0.0085148091042815972,
0.257276,-9.8164154550522777,-0.66211107723923501,-0.1786246739012885,-9.3840794636517373,0.094525509357232432,0.10858227165045155,-0.0064185795228936656,-0.40963535007937529,0.0085148088350781304,
0.25787900000000002,-9.8164154550522777,-0.66211210877710935,-0.17904514936965044,-9.4129740405480113,0.097206720482606895,0.10385781314750184,-0.0066893275127182742,-0.41086801879622131,0.0085584868105912423,
0.25927899999999998,-9.8164154550522777,-0.66211314031498369,-0.17946562483801237,-9.4449792172529872,0.10218314058465565,0.10004672899184558,-0.0070477815156845302,-0.41222824824545906,0.0084455112099205282,
0.26069599999999998,-9.8164154550419624,-0.66211520339073249,-0.17996727202171067,-9.470290319497618,0.10076894026347498,0.097436149920859971,-0.0070481732404176671,-0.4133772234029171,0.0085955150600619187,
0.261243,-9.8569921624242163,-0.67035546519488209,-0.18677861584883282,-9.4702903194880008,0.10076701686637492,0.096968466298988767,-0.0070481142446580892,-0.41337709248615673,0.0085955145216544612,
0.262125,-9.856992162413901,-0.67035752827063089,-0.18728026303253112,-9.4828938646883678,0.09846018787423394,0.093174983754124779,-0.0070267752834719741,-0.41378702374355264,0.0083976686117704005,
0.26359199999999999,-9.8569921624035857,-0.67035959134637968,-0.18778191021622942,-9.4962062179894176,0.095850952902543168,0.09245021133812617,-0.0068390754914653008,-0.41429051780420656,0.0083584561069329887,
0.26504,-9.8569921623932704,-0.67036165442212847,-0.18828355739992772,-9.5192377020650714,0.091793674824575969,0.091624577773478336,-0.0065755335277865598,-0.41522471539917349,0.0082557032067587383,
0.26522000000000001,-9.8948949900549135,-0.67714015860299126,-0.1947275558329051,-9.5192377020554542,0.091791751427475907,0.091156894151607132,-0.0065754745320269819,-0.41522458448241312,0.0082557026683512807,
0.26643,-9.8948949900445982,-0.67714222167874005,-0.1952292030166034,-9.548329552693561,0.091091572978276886,0.090699841317626068,-0.0066337616855249313,-0.41652903352464199,0.0081986132951980088,
0.26786300000000002,-9.8948949900342829,-0.67714428475448885,-0.1957308502003017,-9.5751279741642517,0.090634166125221891,0.091403324911024666,-0.0067438667813776165,-0.41765880167318575,0.00827349697314155,
0.26909699999999998,-9.9195986499045166,-0.68314740872649704,-0.20205101057697961,-9.5751279741546345,0.090632242728121828,0.090935641289153463,-0.0067438077856180386,-0.41765867075642538,0.0082734964347340925,
0.26929599999999998,-9.9195986498942013,-0.68314947180224583,-0.20255265776067791,-9.5893915849238844,0.090610429363239375,0.091595242246343189,-0.0067388488244741951,-0.41842052446917766,0.00832158383505327,
0.27073000000000003,-9.919598649883886,-0.68315153487799474,-0.20311586712472024,-9.5937244590110407,0.085784447747716736,0.093300674421064503,-0.0064934741928012411,-0.4185960427800145,0.0083202158816443779,
0.27215800000000001,-9.9195986498735707,-0.68315359795374364,-0.20367907648876257,-9.5917321216641618,0.078609564132751178,0.093299323786353111,-0.0060945118000181519,-0.41845674170236064,0.0081811235488672713,
0.273036,-9.9614046728597181,-0.68605918607267691,-0.200636150880562,-9.5917321216545446,0.078607640735650935,0.092774245995015367,-0.0060944559261411884,-0.41845659471953733,0.0081811230104598138,
0.273586,-9.9614046728494028,-0.68606124914842581,-0.20119936024460433,-9.5916487815001172,0.078086832143354032,0.09393898599304118,-0.0061161998256299378,-0.41831086626504943,0.0084055029581426681,
0.27503100000000003,-9.9614046728390875,-0.68606331222417472,-0.20176256960864666,-9.6073734579006853,0.075274537875939976,0.094171733235051,-0.0060172525856599414,-0.41904187126306386,0.0084277656180503299,
0.27646300000000001,-9.9614046728287722,-0.68606537529992362,-0.202325778972689,-9.6309366349429482,0.077915305209656116,0.09426800358871984,-0.0061479535120468401,-0.42020066240582388,0.0085299789468093381,
0.27696300000000001,-10.000430404281024,-0.68353059062845911,-0.19934415631960001,-9.630936634933331,0.077913381812555874,0.093742925797382096,-0.0061478976381698766,-0.42020051542300058,0.0085299784084018806,
0.27787099999999998,-10.000430404270709,-0.68353265370420802,-0.19990736568364234,-9.6537046792424324,0.082946554161085512,0.095444279290553866,-0.0066065395069578791,-0.42123747036476128,0.0085292800343335588,
0.27930899999999997,-10.000430404260394,-0.68353471677995692,-0.20047057504768467,-9.6607281898675161,0.078076740174591139,0.097255638769732117,-0.0064346853060864928,-0.42167220681957296,0.0084524303165301271,
0.280781,-10.000430404250078,-0.68353781139358005,-0.20113174956365856,-9.654931783080956,0.070747079857988907,0.099730955934069707,-0.0060322174007522945,-0.42145218904913317,0.0084771110207781733,
0.28088999999999997,-10.019084399413471,-0.68128840252533496,-0.20040514995320091,-9.6549317830713388,0.070744194762338813,0.099114545631434417,-0.0060321242773840149,-0.42145201650005659,0.008477110213167249,
0.28220899999999999,-10.019084399403155,-0.68129149713895809,-0.2010663244691748,-9.6468290999328268,0.06437783333136407,0.10150639911095136,-0.005768731109965018,-0.42108427866580778,0.0083535814306952422,
0.28360800000000003,-10.01908439939284,-0.68129459175258122,-0.20172749898514869,-9.6363814974369628,0.057669739330967119,0.10305033013581041,-0.0054669252165417447,-0.4203681866152057,0.0085944441819827688,
0.28480899999999998,-10.017924589582442,-0.68225597766237844,-0.21898379650264771,-9.6363814974273456,0.057666854235317026,0.10243391983317512,-0.0054668320931734651,-0.42036801406612911,0.0085944433743718445,
0.28504099999999999,-10.017924589572127,-0.68225907227600158,-0.2196449710186216,-9.647791966976234,0.054630612980238531,0.10500689941508495,-0.0053744334352137735,-0.42096760683407913,0.0085258081193046124,
0.28653699999999999,-10.017924589561812,-0.68226216688962471,-0.22030614553459549,-9.6658526463747325,0.055401832271074869,0.10540797327296379,-0.0054062872574414016,-0.42178688253854774,0.0084362983802958418,
0.28796699999999997,-10.017924589551496,-0.68226526150324784,-0.22096732005056938,-9.6926511983074128,0.056067878377951332,0.10720810546464608,-0.0053743907838994329,-0.42310951547242043,0.0086817859836759107,
0.28871200000000002,-10.016842175990464,-0.68311706241400294,-0.21042454297921306,-9.6926511982977956,0.056064993282301238,0.10659169516201079,-0.0053742976605311533,-0.42310934292334385,0.0086817851760649864,
0.28936499999999998,-10.016842175980148,-0.68312015702762607,-0.21108571749518695,-9.7110795324512917,0.055261250692476949,0.10697737483039745,-0.0054020186918153018,-0.42416640964952607,0.0085151682292638493,
0.29077399999999998,-10.016842175969833,-0.68312428317912366,-0.21182675367339668,-9.7119612983187054,0.051485075814038744,0.10643073673523029,-0.0051009109712710629,-0.42400261578966469,0.00869409084113262,
0.292209,-10.016842175959518,-0.68312840933062124,-0.2125677898516064,-9.7085007787608717,0.052240241638979966,0.10664762079157995,-0.0051193053781897185,-0.42396332448123736,0.0085718510781840843,
0.29267599999999999,-10.056142517836131,-0.68792001315839335,-0.21320573022166536,-9.7085007787512545,0.052236394844779842,0.10595675578720036,-0.0051191740872831978,-0.42396313109042832,0.0085718500013696915,
0.293653,-10.056142517825815,-0.68792413930989094,-0.21394676639987509,-9.7017337478079977,0.059616227590239761,0.10576821266756779,-0.0054678119402065831,-0.42349679722438655,0.0083095979265269144,
0.29511100000000001,-10.0561425178155,-0.68792826546138852,-0.21468780257808481,-9.711365160288624,0.0654631288757484,0.10394170414486832,-0.005660695626282861,-0.42393881728023136,0.0086048710461973706,
0.29653200000000002,-10.056142517805185,-0.68793239161288611,-0.21542883875629454,-9.7295264335291538,0.076081504191151353,0.10260295340989987,-0.0062045904382875168,-0.42471300424655128,0.0084497941120273926,
0.29657299999999998,-10.053321722755394,-0.69029924980292978,-0.21594118692938521,-9.7295264335195366,0.076077657396951229,0.10191208840552028,-0.0062044591473809961,-0.42471281085574225,0.0084497930352129998,
0.29796,-10.053321722745078,-0.69030337595442737,-0.21668222310759494,-9.7507165945897132,0.085785310260230285,0.10133458041357976,-0.006636242473048848,-0.42578697471714755,0.0085496014429194533,
0.29941000000000001,-10.053321722734763,-0.69030750210592495,-0.21742325928580467,-9.7558669780254572,0.089089192028322897,0.10086867836100959,-0.0066523488644753539,-0.42611010077837014,0.0084166839731318038,
0.30056500000000003,-10.050685176710109,-0.69241229648356006,-0.21592995549192928,-9.7558669780062228,0.089084383535572562,0.10009829050352698,-0.0066521796817062117,-0.42610988512670422,0.0084166826271134202,
0.30083599999999999,-10.050685176689479,-0.69241745417293221,-0.21675628953697296,-9.7460739294447105,0.093583149108156002,0.09914161248415132,-0.0067521182093688769,-0.42575587887821537,0.0080677976905482469,
0.302257,-10.050685176668848,-0.69242261186230436,-0.21758262358201663,-9.7255962935673601,0.095993089380184804,0.099181521052048083,-0.0068151266714933474,-0.42487516656250235,0.0081303812384642439,
0.30369600000000002,-10.050685176648217,-0.69242776955167651,-0.21840895762706031,-9.7018163249927358,0.10021658700363598,0.097721052658437599,-0.0069890790403421225,-0.42372416859824658,0.0082867494843500544,
0.30451299999999998,-10.083951097284213,-0.68083140592111435,-0.22129204191032587,-9.7018163249735014,0.10021177851088564,0.096950664800954989,-0.0069889098575729803,-0.42372395294658066,0.0082867481383316708,
0.30513200000000001,-10.083951097263583,-0.6808365636104865,-0.22211837595536954,-9.6900846259268416,0.10550379917184952,0.095238741102145377,-0.0071861554970330324,-0.42308959423841702,0.0082617377696797591,
0.30657000000000001,-10.083951097242952,-0.68084172129985865,-0.22294471000041322,-9.693332516135106,0.10818688481464979,0.093464524429911336,-0.0072665344037444448,-0.42336114137320663,0.0080334648677779785,
0.30800899999999998,-10.083951097222322,-0.6808468789892308,-0.22377104404545689,-9.6977010703856088,0.11215637446627111,0.092588293768155111,-0.0074636907702858545,-0.42368005037404161,0.0082167180470036558,
0.30846000000000001,-10.062767021383408,-0.67674499862126258,-0.22641839653667006,-9.6977010703663744,0.11215156597352077,0.091817905910672501,-0.0074635215875167122,-0.42367983472237569,0.0082167167009852722,
0.30939699999999998,-10.062767021362777,-0.67675015631063473,-0.22724473058171374,-9.6984196888266627,0.11410231504816344,0.089013212694093236,-0.0076869540761673044,-0.42394425601436564,0.0084451226840201038,
0.310832,-10.062767021342147,-0.676756345537881,-0.22815531032495948,-9.683242383722261,0.11222854856398348,0.086241946028850228,-0.0075599164337823961,-0.42327109268326008,0.0081797100848239931,
0.31228400000000001,-10.062767021321516,-0.67676253476512727,-0.22906589006820521,-9.6625481877656085,0.11295758468709509,0.083675874422250468,-0.0076097826221958233,-0.42242067816004042,0.0081647028467175635,
0.31240299999999999,-10.042986833001784,-0.67312078484069959,-0.22935168268015479,-9.6625481877463741,0.1129518144957949,0.082826944644185885,-0.0076095754942075025,-0.42242044052252731,0.0081647012314957131,
0.31371199999999999,-10.042986832981153,-0.67312697406794586,-0.23026226242340053,-9.6415983832983905,0.11336677715629725,0.080503655336441049,-0.0075211889644656608,-0.42145458049109008,0.008192017199525713,
0.31512000000000001,-10.042986832960523,-0.67313316329519213,-0.23117284216664627,-9.634610042542203,0.10952044800395272,0.077333875232328708,-0.0073306707578689343,-0.42104462153805083,0.0083078357048571826,
0.31634699999999999,-10.033253865356029,-0.6663983243030146,-0.23399605007316951,-9.6346100425229686,0.10951467781265253,0.076484945454264125,-0.0073304636298806135,-0.42104438390053772,0.0083078340896353322,
0.31656800000000002,-10.033253865335398,-0.66640451353026087,-0.23490662981641525,-9.6405768055214036,0.10618359845282967,0.075262257857996104,-0.0071653100789189888,-0.42145916877676554,0.0083061438884072889,
0.31805099999999997,-10.033253865314768,-0.66641070275750713,-0.23581720955966098,-9.6482161548676491,0.10556045540014675,0.072569586325107627,-0.0069961736620989361,-0.42176304013801913,0.0081641990454377859,
0.31944800000000001,-10.033253865294137,-0.6664168919847534,-0.23672778930290672,-9.6516033943188102,0.10364947696218811,0.069779113525485506,-0.0069151792614923794,-0.4221956806806309,0.0081649787196508457,
0.32026399999999999,-10.047191261865557,-0.67282349993256152,-0.23938433733770054,-9.6516033942899586,0.10364178337378786,0.068854171094025557,-0.0069148918333018601,-0.42219542176485358,0.0081649765660215378,
0.320855,-10.047191261834611,-0.67283175223555658,-0.24037644983453865,-9.6371931147824821,0.097792145283556287,0.065640472642705852,-0.0068889079774641752,-0.42153146486774151,0.0081249517197098803,
0.322295,-10.047191261803665,-0.67284000453855164,-0.24136856233137677,-9.6202666519275954,0.092906766196215365,0.062192265001177548,-0.0068232491503700801,-0.42081093104251405,0.0083498559385888592,
0.32372800000000002,-10.047191261772719,-0.6728482568415467,-0.24236067482821488,-9.6010189169169671,0.093085649146664728,0.058745928657272982,-0.006817985273543682,-0.41986490657886549,0.0082095454158965502,
0.32419900000000001,-10.060204111538521,-0.67853179339105529,-0.24603138884117876,-9.6010189168881155,0.09307795555826448,0.057820986225813026,-0.0068176978453531626,-0.41986464766308818,0.0082095432622672423,
0.32516299999999998,-10.060204111507575,-0.67854004569405035,-0.24702350133801687,-9.5921354343264618,0.094100405487255095,0.054867138161367936,-0.0068267963445099349,-0.41940148770725177,0.0083050930458126934,
0.32657999999999998,-10.060204111476629,-0.67854829799704541,-0.24801561383485499,-9.5930331167860299,0.093795148698378475,0.051220913032268285,-0.0069415919907419143,-0.4195791774248151,0.0084824297880919369,
0.328011,-10.060204111445683,-0.67855655030004047,-0.2490077263316931,-9.5963866453883249,0.10189079915534396,0.049273755222049881,-0.0072935486036877512,-0.41968757257336464,0.0086851548087522931,
0.32815699999999998,-10.035671891045656,-0.68548623240392714,-0.2532280997213065,-9.5963866453594733,0.10188310556694372,0.048348812790589925,-0.0072932611754972319,-0.41968731365758732,0.0086851526551229852,
0.32945799999999997,-10.03567189101471,-0.6854944847069222,-0.25422021221814461,-9.5917671929384412,0.10729147146772006,0.045418726669587441,-0.0076044732147951596,-0.41962810063102779,0.0085537580147968216,
0.330872,-10.035671890983764,-0.68550376854779183,-0.25524170291364556,-9.5743412831639407,0.10714858472924162,0.042964066036387971,-0.0075962951372992955,-0.41880602969339942,0.0083686049341629102,
0.33213799999999999,-9.9976549649044131,-0.6711746547891323,-0.25921747559505193,-9.5743412831350891,0.10713992944229116,0.042011734430222804,-0.0075959669815012327,-0.41880576311070733,0.0083686025113301355,
0.33233000000000001,-9.9976549648734672,-0.67118393863000192,-0.26023896629055288,-9.5552579904117554,0.1071853244030101,0.039798100967154193,-0.0075208447169899141,-0.4180779021309719,0.0082508111728616176,
0.33374500000000001,-9.9976549648425213,-0.67119322247087154,-0.26126045698605382,-9.5407571814771668,0.10414591599814457,0.039285858504462375,-0.0073484369413924647,-0.41731339236978254,0.0081402808441966724,
0.33518399999999998,-9.9976549648115753,-0.67120250631174116,-0.26228194768155477,-9.5442011033785512,0.10179192510467659,0.037873703412209241,-0.0071060658660109704,-0.41751274504130848,0.0078838216089352885,
0.33604200000000001,-10.002839611202116,-0.6584976067714513,-0.26994230025293831,-9.5442011033496996,0.10178326981772613,0.036921371806044073,-0.0071057377102129076,-0.41751247845861639,0.0078838191861025139,
0.33659600000000001,-10.00283961117117,-0.65850689061232093,-0.27096379094843925,-9.5512569756517181,0.10221983166412064,0.035917659012012715,-0.0071804628955669317,-0.41785734247786138,0.0079782852811943819,
0.33803699999999998,-10.002839611140224,-0.65851617445319055,-0.2719852816439402,-9.5559574742835807,0.1013529151812313,0.035135809270830064,-0.0071970491454981618,-0.4182446341265193,0.0083086405787180066,
0.33947699999999997,-10.002839611109279,-0.65852545829406017,-0.27300677233944115,-9.5439361777114708,0.097406511957301392,0.034463421060631272,-0.0070117015932243815,-0.4176951809002431,0.0085197077075879046,
0.33999800000000002,-9.9956054717980312,-0.66636370772265763,-0.27125960564095425,-9.5439361776826193,0.097397856670350932,0.033511089454466104,-0.0070113734374263187,-0.41769491431755101,0.0085197052847551299,
0.34091399999999999,-9.9956054717567699,-0.66637402310140148,-0.2723579665388553,-9.5262926296828176,0.091741999672402083,0.03193973421326695,-0.0067029809514004236,-0.41685520247336877,0.0084810895078401179,
0.342358,-9.9956054717155087,-0.66638433848014533,-0.27345632743675635,-9.5107735543092407,0.081561802835135408,0.030891326928465617,-0.0063639391893131206,-0.41616896704631429,0.0082894714317507372,
0.34376400000000001,-9.9956054716742475,-0.66639465385888919,-0.2745546883346574,-9.5066102547421671,0.079098389053888399,0.030240167337877308,-0.0063042557494033336,-0.41594681167506409,0.008352842013267317,
0.343918,-10.01204135625529,-0.67307552323084496,-0.27281391287089785,-9.5066102547036984,0.079088772068388088,0.029216169955762965,-0.0063038892743669771,-0.41594652503090745,0.0083528393212305516,
0.34522900000000001,-10.012041356214029,-0.67308583860958882,-0.2739122737687989,-9.5096669599460153,0.07769081041202118,0.029618107107597061,-0.0061961190196364591,-0.41617918340838367,0.0083249137067442497,
0.34664499999999998,-10.012041356172768,-0.67309615398833267,-0.27501063466669995,-9.5099019045695865,0.07237429667051834,0.029026764549489333,-0.0059325403569304748,-0.41607732008101911,0.0083288408268180243,
0.34791,-9.986713966080087,-0.67903187080016758,-0.27598270771625982,-9.5099019045311177,0.07236467968501803,0.02800276716737499,-0.0059321738818941183,-0.41607703343686248,0.0083288381347812589,
0.34808,-9.9867139660388258,-0.67904218617891143,-0.27708106861416087,-9.509555896138373,0.071420499012205554,0.028561918597646178,-0.0058692455434108618,-0.41612977048503391,0.0081997254477857631,
0.34949799999999998,-9.9867139659975646,-0.67905250155765529,-0.27817942951206193,-9.4999659191171073,0.064591541864914642,0.028622029221186736,-0.0055961801955246816,-0.41558780250295801,0.0083515942959081525,
0.35093800000000003,-9.986713965945988,-0.67906488001214815,-0.27929575979973498,-9.4898098957712218,0.057375815841231442,0.028190783960772105,-0.0051410956796055021,-0.41518543257291041,0.0084481489617405977,
0.35180099999999997,-9.9899241094733195,-0.68782163360785675,-0.27673387384012255,-9.4898098957231376,0.05736427545863089,0.027150033789916022,-0.0051406456810022079,-0.41518514123880718,0.0084481457312963748,
0.35237200000000002,-9.989924109421743,-0.68783401206234962,-0.2778502041277956,-9.4823791717482582,0.058056360937754611,0.027390151719552551,-0.0052649545554802751,-0.41475155496872601,0.0087771472238410281,
0.35380899999999998,-9.9899241093701665,-0.68784639051684249,-0.27896653441546865,-9.490676865621495,0.059538341433843775,0.026694729228046155,-0.0053003285815104127,-0.41516734036716291,0.0087751182434891908,
0.35522399999999998,-9.98992410931859,-0.68785876897133535,-0.2800828647031417,-9.4990624349847863,0.062667809629979337,0.025475871848326396,-0.0054551468130181581,-0.41543987927441084,0.0085389805768235159,
0.355744,-9.9803744830293279,-0.68486143689399692,-0.27748650598135238,-9.4990624349367021,0.062656269247378785,0.024435121677470313,-0.0054546968144148639,-0.41543958794030761,0.008538977346379293,
0.35666500000000001,-9.9803744829777514,-0.68487381534848979,-0.27860283626902543,-9.5084306716152973,0.06650505088964688,0.024793940192463403,-0.0055439575551888016,-0.41600825192732788,0.0086108317057529294,
0.35809800000000003,-9.9803744829261749,-0.68488619380298266,-0.27971916655669848,-9.5076078702570825,0.067625888359908196,0.024113473669073002,-0.0055467109156268884,-0.41590763447264384,0.0086686247510847185,
0.35956100000000002,-9.9803744828745984,-0.68489857225747552,-0.28083549684437153,-9.4984999567592947,0.070149226570459911,0.023378885177710404,-0.0057190607163093198,-0.41547079967867467,0.0085830610075797627,
0.35964600000000002,-9.9714632979906117,-0.68223641427512349,-0.28251486361591183,-9.4984999567112105,0.070137686187859358,0.022338135006854321,-0.0057186107177060255,-0.41547050834457144,0.0085830577771355398,
0.36096299999999998,-9.9714632979390352,-0.6822498242674907,-0.28364790481715013,-9.489241406462483,0.072721037030222049,0.021290435615871905,-0.0058643826956654979,-0.41509372489297336,0.008442864530892007,
0.362396,-9.9714632978874587,-0.68226323425985791,-0.28478094601838844,-9.4805541641824398,0.078938893790008305,0.019774062087828642,-0.0061157716164384895,-0.41456471502526843,0.0085103230992745783,
0.36358600000000002,-9.9679072860155049,-0.68554617038804577,-0.28493761044723737,-9.4805541641343556,0.078926391708857721,0.018717732400461869,-0.006115280247856369,-0.41456441933006904,0.0085103195996268869,
0.36382500000000001,-9.9679072859639284,-0.68555958038041298,-0.28607065164847567,-9.4795050630243534,0.087072318397421494,0.016621499821871118,-0.0065220254172691549,-0.4144952585847077,0.0085320687526112531,
0.36525999999999997,-9.9679072859123519,-0.68557299037278019,-0.28720369284971398,-9.4863273921678815,0.088916277448807562,0.014114880634904859,-0.0066101432284792882,-0.4146186754813414,0.0083706325626057166,
0.36667300000000003,-9.9679072858607753,-0.6855864003651474,-0.28833673405095228,-9.5000123544901207,0.088945935019168532,0.01057322495283319,-0.0067097659207278693,-0.41523481989763328,0.0083485435790458442,
0.36751499999999998,-9.9645872678630827,-0.67424071098392246,-0.28833757935237259,-9.5000123544420365,0.088933432938017948,0.0095168952654664171,-0.0067092745521457487,-0.4152345242024339,0.0083485400793981528,
0.36811300000000002,-9.9645872678115062,-0.67425412097628967,-0.28947062055361089,-9.5146870525100002,0.090400542251908439,0.0062418851077626399,-0.0067146416982433793,-0.41578559931041803,0.0083115638549505124,
0.36957000000000001,-9.9645872677599296,-0.67426753096865688,-0.2906036617548492,-9.5321361634926536,0.090919041349150326,0.0019126049879699182,-0.0067079457105843777,-0.41648675734301305,0.0083117371162600966,
0.37100899999999998,-9.9645872677083531,-0.67428300403677288,-0.29179983307400065,-9.5474224850563285,0.096450932304388962,-0.0020820703962263183,-0.0069888519750629461,-0.41715624020472436,0.0083419359415587493,
0.37144100000000002,-9.9664013977773802,-0.66421005401437616,-0.29790554055245422,-9.5474224850082443,0.096436506826138316,-0.0031972560348556981,-0.0069882793730617039,-0.41715592803427276,0.0083419319035041243,
0.37240400000000001,-9.9664013977258037,-0.66422552708249216,-0.29910171187160567,-9.5588670599048022,0.098530167448276501,-0.0069136543641632724,-0.0071480309853357077,-0.41760534287576084,0.0084280945966522577,
0.37387900000000002,-9.9664013976742272,-0.66424100015060816,-0.30029788319075712,-9.5662264065591938,0.097795418896080025,-0.009569661390399789,-0.0070375521650383787,-0.41778424984578444,0.0084674990370331576,
0.37529200000000001,-9.9664013976226506,-0.66425647321872416,-0.30149405450990857,-9.5799117055755492,0.096983714022073009,-0.011343316950683212,-0.0070901610693876963,-0.4183528119836612,0.0083508502393102053,
0.37542999999999999,-9.9947816369064437,-0.65772001723619844,-0.31148518641616413,-9.579911705527465,0.096969288543822363,-0.012458502589312592,-0.0070895884673864542,-0.4183524998132096,0.0083508462012555802,
0.37675199999999998,-9.9947816368548672,-0.65773549030431444,-0.31268135773531558,-9.5993599137977661,0.090708359901027408,-0.01393532193547011,-0.0067616369840952702,-0.41921676469490787,0.0082845822308832227,
0.37817499999999998,-9.9947816368032907,-0.65775096337243044,-0.31387752905446703,-9.6157347737922763,0.088259593039447595,-0.016205592149060206,-0.0066215162064699297,-0.41987701466096716,0.0084248093393265965,
0.37932700000000003,-10.02126174244618,-0.65598792676979112,-0.3233213281716717,-9.6157347737441921,0.088245167561196949,-0.017320777787689586,-0.0066209436044686876,-0.41987670249051556,0.0084248053012719714,
0.37960500000000003,-10.021261742394604,-0.65600339983790712,-0.32451749949082315,-9.629433959713813,0.092878779527656385,-0.019721638309564159,-0.0067310981597660012,-0.42060554156275864,0.008443117794290713,
0.381054,-10.021261742322396,-0.65602196751964625,-0.32579485284068971,-9.637051743762493,0.096488414991123095,-0.022820847917094083,-0.0068244262398319648,-0.42091458545477212,0.0085420659484166696,
0.38248599999999999,-10.021261742250189,-0.65604053520138539,-0.32707220619055627,-9.6423789035770699,0.098617584334970448,-0.025709514425827529,-0.0069703213724307692,-0.42105215322775263,0.0085813784319853873,
0.38326100000000002,-10.048209941507391,-0.65447233078011102,-0.32981846326396103,-9.6423789035097514,0.098600273761069709,-0.02690038574034526,-0.0069696262350350544,-0.42105181987014384,0.0085813735863193141,
0.38387100000000002,-10.048209941435184,-0.65449089846185016,-0.33109581661382759,-9.6519566729452588,0.098079454443483663,-0.028685656533664568,-0.0069261652837822136,-0.42134894776313508,0.0085713964828176194,
0.385299,-10.048209941362977,-0.65450946614358929,-0.33237316996369415,-9.6713914834451735,0.095750400564494867,-0.030199501514033524,-0.0067715835545661554,-0.42230831841684119,0.0085514331621550695,
0.38673800000000003,-10.04820994129077,-0.65452803382532843,-0.33365052331356071,-9.6953624222502484,0.095661802847303412,-0.032003990602802061,-0.0067773116612091996,-0.42326954144987422,0.0085575275038803668,
0.387179,-10.06019214710517,-0.65071007763795052,-0.33946795522923656,-9.6953624221829298,0.095644492273402673,-0.033194861917319796,-0.0067766165238134848,-0.42326920809226543,0.0085575226582142935,
0.38817800000000002,-10.060192147032962,-0.65072864531968966,-0.34074530857910312,-9.7218061514017311,0.10066435825690985,-0.033629882174641752,-0.0070298586426808182,-0.42456406409355618,0.0085094917060771682,
0.38959700000000003,-10.060192146960755,-0.65074721300142879,-0.34202266192896968,-9.7350534611929209,0.1059174906897796,-0.033797953933423143,-0.0073264870787670524,-0.42519524472410364,0.008447228505543589,
0.39104299999999997,-10.060192146888548,-0.65076887529679128,-0.34339326630268174,-9.7355362141857942,0.11159366820761543,-0.033291350173848828,-0.0076478719498682029,-0.4252070448320398,0.0084128446924375995,
0.39112999999999998,-10.071383760519863,-0.64602869281520037,-0.34887336483135939,-9.7355362141184756,0.11157347253806442,-0.034569159037290409,-0.0076470548891092865,-0.42520668713843757,0.0084128390391611241,
0.39247100000000001,-10.071383760447656,-0.64605035511056286,-0.35024396920507145,-9.7292416645954063,0.10903079868374914,-0.033225596182381058,-0.0075927213794601371,-0.42496003443472985,0.0083439830227208939,
0.39391100000000001,-10.071383760375449,-0.64607201740592535,-0.35161457357878351,-9.7196974333193147,0.10312336844249788,-0.031740517991067134,-0.0072913618234072093,-0.42424525000999297,0.0084043504533275991,
0.39504899999999998,-10.112299642682823,-0.64186113580227744,-0.35484361473446796,-9.7196974332519961,0.10310317277294687,-0.033018326854508714,-0.007290544762648293,-0.42424489231639073,0.0084043448000511237,
0.395339,-10.112299642610616,-0.64188279809763993,-0.35621421910818002,-9.7291418284794915,0.099142901986677537,-0.031955677771591522,-0.0072081479665805732,-0.42473743529929114,0.0083412536517696798,
0.39679700000000001,-10.112299642538408,-0.64190446039300242,-0.35758482348189208,-9.7495035640517003,0.099502418505871534,-0.03137391360008316,-0.0072357966843210166,-0.42555146694610085,0.0082946897055153901,
0.398206,-10.112299642466201,-0.64192612268836491,-0.35895542785560414,-9.7755764846950832,0.099316012230728737,-0.031702750162828586,-0.0072677039549818275,-0.42679617283000759,0.0085964462633914517,
0.39895000000000003,-10.114166457953491,-0.64920187148395048,-0.35283625771794891,-9.7755764846277646,0.099295816561177724,-0.032980559026270166,-0.0072668868942229112,-0.42679581513640535,0.0085964406101149762,
0.39964100000000002,-10.114166457881284,-0.64922353377931297,-0.35420686209166097,-9.7959597223978836,0.10056581039750573,-0.031709661635882999,-0.007444784621185154,-0.42770775203838451,0.0085620462732397401,
0.40107399999999999,-10.114166457788446,-0.64924829068829837,-0.35565503811352772,-9.8019264521363745,0.097202585649408216,-0.030599330273657018,-0.0073482310222723014,-0.42808223300183312,0.0083239589495882303,
0.40252700000000002,-10.114166457695609,-0.64927304759728377,-0.35710321413539448,-9.7978501468830395,0.087950037756423044,-0.028682737859841198,-0.0069471463687177729,-0.42787971536745051,0.0083749240465605598,
0.40288600000000002,-10.11590985100985,-0.64685815460631635,-0.35113917352744417,-9.7978501467964865,0.087926956991222105,-0.030032866454245979,-0.0069462065894781121,-0.42787933742890316,0.0083749175856726362,
0.40395500000000001,-10.115909850917012,-0.64688291151530175,-0.35258734954931092,-9.7910009645120937,0.079555122238733345,-0.026338580556404791,-0.0064617461313158505,-0.42754407676547157,0.0083608849680349828,
0.40540300000000001,-10.115909850824174,-0.64690766842428715,-0.35403552557117768,-9.7901932666697373,0.077138336345065145,-0.02422675151760938,-0.0064337031089129358,-0.4274534967594566,0.0082450570612849321,
0.406831,-10.14530529474335,-0.64475727937140193,-0.35124908998431054,-9.7901932665831843,0.077115255579864206,-0.025576880112014162,-0.006432763329673275,-0.42745311882090925,0.0082450506003970084,
0.40683599999999998,-10.145305294650512,-0.64478203628038733,-0.35269726600617729,-9.7978397504666557,0.075621338011633343,-0.023597847735384512,-0.0062837615540081593,-0.42794614144192145,0.0080694817290848514,
0.408271,-10.145305294557675,-0.64480679318937273,-0.35414544202804404,-9.8033425017501408,0.075702677483394418,-0.02231211156779676,-0.0063155309568025059,-0.42821935777981657,0.0082021118384589774,
0.40966799999999998,-10.145305294464837,-0.64483155009835813,-0.3555936180499108,-9.7997580142517968,0.072818732312640924,-0.021236383702927467,-0.0062391022672756476,-0.42814029516468144,0.0083714185160255437,
0.410802,-10.159590360865536,-0.65099222696079861,-0.34927504857939823,-9.7997580141556266,0.072791804753239694,-0.02269191445841692,-0.0062379993516250556,-0.42813988772101191,0.0083714109783232273,
0.41111900000000001,-10.159590360762383,-0.65102111002128182,-0.35083628115229898,-9.7917582499082165,0.068303601332499783,-0.021247321661324745,-0.0059415700410596827,-0.42780662672517034,0.0083257207397627563,
0.41254000000000002,-10.15959036065923,-0.65104999308176503,-0.35239751372519973,-9.7856500291534196,0.064354758966282705,-0.019649126488864761,-0.0056729559595848833,-0.42753701093932878,0.0084008595501566755,
0.41394900000000001,-10.159590360556077,-0.65107887614224824,-0.35395874629810048,-9.7870407135802733,0.058597778515698619,-0.017894773375166977,-0.0053870098481203429,-0.42760282790908133,0.0083782255963494451,
0.41472999999999999,-10.172926739423161,-0.66730081902512328,-0.34771266223504055,-9.7870407134841031,0.058570850956297389,-0.019350304130656429,-0.0053859069324697509,-0.4276024204654118,0.0083782180586471286,
0.41538700000000001,-10.172926739320008,-0.66732970208560649,-0.3492738948079413,-9.7961572534599224,0.059119363759196415,-0.018906933406190211,-0.0053228115117137089,-0.42809564485817564,0.0082599473159185779,
0.416821,-10.172926739216855,-0.6673585851460897,-0.35083512738084205,-9.8092909404556714,0.060810716381125854,-0.017796907153790311,-0.0054527222938419422,-0.42864895580004819,0.0083338092885912145,
0.41828399999999999,-10.172926739113702,-0.66738746820657291,-0.3523963599537428,-9.8192465478769559,0.059444655216064353,-0.017704900277894231,-0.0054418144087891559,-0.42923713782797446,0.0082240387981899702,
0.41866399999999998,-10.169509480293314,-0.68177571680665283,-0.34989378246521258,-9.8192465477807858,0.059417727656663123,-0.019160431033383683,-0.0054407114931385638,-0.42923673038430493,0.0082240312604876537,
0.419678,-10.169509480190161,-0.68180459986713604,-0.35145501503811333,-9.8154865976034902,0.05961848472335271,-0.019126079416007281,-0.0054282299001723678,-0.42904145810658567,0.0080461948474360272,
0.42111599999999999,-10.169509480066376,-0.68183760907911672,-0.35312187708935239,-9.8080505651488359,0.06292896242637569,-0.019358789159207294,-0.0055037898079477012,-0.4287231745214542,0.0080672040486429956,
0.42254399999999998,-10.16950947994259,-0.68187061829109741,-0.35478873914059145,-9.7995813814493573,0.06132966081911706,-0.019752353045013528,-0.0054155282162596649,-0.42818021619990115,0.008052612311761723,
0.42258000000000001,-10.182346762017435,-0.67875953664198341,-0.35144344256834886,-9.7995813813339527,0.061298886465515699,-0.021306361732027341,-0.0054142617875635162,-0.42817978118895222,0.0080526036972444915,
0.42402000000000001,-10.182346761893649,-0.67879254585396409,-0.35311030461958792,-9.8027744983503915,0.06295499500399393,-0.02210125871620312,-0.005417000751072161,-0.42839656143264399,0.0079873097500296839,
0.42543599999999998,-10.182346761769864,-0.67882555506594477,-0.35477716667082698,-9.813282553582761,0.067287854194799046,-0.023668238469306425,-0.0056288219196571733,-0.42882210040867574,0.0080904154958571783,
0.426512,-10.194333380437316,-0.67605644745596638,-0.3514325292866643,-9.8132825534673565,0.067257079841197692,-0.025222247156320238,-0.0056275554909610247,-0.42882166539772681,0.0080904068813399468,
0.42685000000000001,-10.19433338031353,-0.67608945666794706,-0.35309939133790336,-9.8270937674544161,0.069490683563020086,-0.026503445103159277,-0.0058502475412860536,-0.42946825135315386,0.0084127067061133282,
0.428282,-10.194333380189745,-0.67612246587992775,-0.35476625338914242,-9.8316568982941011,0.071196870482679447,-0.028448297353553465,-0.0058975515188167465,-0.42983974739583913,0.008545731180775739,
0.429732,-10.194333380045329,-0.67616063278128036,-0.35649975278706758,-9.8203846065410421,0.07113153304148398,-0.030836268172774108,-0.0057938495150903491,-0.42934268459219915,0.0084346653550565337,
0.43043700000000001,-10.207584476544502,-0.67423368713826382,-0.35776196560609619,-9.8203846064064049,0.071095950195132457,-0.032452402586120664,-0.0057923753786100728,-0.42934223218986189,0.0084346553945209186,
0.43114000000000002,-10.207584476400086,-0.67427185403961643,-0.35949546500402135,-9.8054226078636297,0.073064906454177819,-0.034138492596227553,-0.0057106901531299107,-0.42874872694860278,0.0082099802569308798,
0.43257400000000001,-10.20758447625567,-0.67431002094096903,-0.36122896440194652,-9.7878235428024905,0.07292467624876238,-0.035452798999334893,-0.0057869237246159291,-0.42796194642033053,0.0083106837671541017,
0.43401499999999998,-10.207584476111254,-0.67434818784232164,-0.36296246379987168,-9.7727352661625666,0.074140531705522303,-0.038507699039450768,-0.0056455420486200836,-0.42727234284363158,0.0084706228435965664,
0.43436399999999997,-10.189657439274837,-0.67638935329043981,-0.3639415158095306,-9.7727352660279294,0.07410494885917078,-0.040123833452797325,-0.0056440679121398073,-0.42727189044129432,0.0084706128830609514,
0.435446,-10.189657439130421,-0.67642752019179242,-0.36567501520745577,-9.7704911221693251,0.080311744627355963,-0.042101922092058874,-0.0059115639993522753,-0.42721591897421929,0.0083610321987569944,
0.43686199999999997,-10.189657438986005,-0.67646568709314503,-0.36740851460538093,-9.7746100804776148,0.086089342705240421,-0.044646210470433677,-0.0061490637134993201,-0.42756452098120773,0.0083505913550430376,
0.43830400000000003,-10.172915518107171,-0.67826957235577234,-0.36577867799867692,-9.7746100803429776,0.086053759858888898,-0.046262344883780233,-0.0061475895770190438,-0.42756406857887047,0.0083505813945074225,
0.438309,-10.172915517962755,-0.67830773925712495,-0.36751217739660208,-9.770558868570367,0.084648340326999222,-0.049223757527551613,-0.0061616362021382227,-0.42747550570742937,0.0083512580779640053,
0.43974400000000002,-10.172915517818339,-0.67834590615847756,-0.36924567679452724,-9.7530127649030049,0.084760745064481322,-0.050861375480481009,-0.0062147932012028458,-0.4267821038505778,0.0084990266975454136,
0.44118600000000002,-10.172915517663608,-0.67838819921132798,-0.3710855277473028,-9.7274282982052398,0.082322384914647925,-0.053123988566989182,-0.0061263398154336735,-0.42564305818666931,0.0083100712354053675,
0.44222400000000001,-10.178227077721594,-0.66734191669778353,-0.37695254146647683,-9.7274282980609854,0.082282955274096112,-0.054839274100845131,-0.0061247022025250888,-0.42564257802903238,0.0083100601980553596,
0.44261600000000001,-10.178227077566863,-0.66738420975063395,-0.37879239241925239,-9.7049925376562918,0.081128523023142163,-0.057133357400059488,-0.0059705134576881307,-0.42466215111289096,0.0084101436087172798,
0.44403799999999999,-10.178227077412132,-0.66742650280348437,-0.38063224337202795,-9.6909253431127809,0.083246105851095736,-0.060699983144829418,-0.0061441978149854946,-0.42393963823958108,0.0083906988191471063,
0.44546799999999998,-10.1782270772574,-0.66746879585633478,-0.3824720943248035,-9.6883641293517275,0.085803282686495216,-0.064270071098446124,-0.0062225588672000622,-0.42393669876634421,0.0084968701692294535,
0.44617200000000001,-10.140978882176,-0.66732812460312119,-0.3878407666755519,-9.6883641292074731,0.085763853045943403,-0.065985356632302081,-0.0062209212542914775,-0.42393621860870728,0.0084968591318794456,
0.44690400000000002,-10.140978882021269,-0.6673704176559716,-0.38968061762832745,-9.6878935496420038,0.091955998651169643,-0.067965892678107639,-0.0064749155989878623,-0.4238836557886011,0.0087089587233078348,
0.44834400000000002,-10.140978881866538,-0.66741271070882202,-0.39152046858110301,-9.6854643903683275,0.094398561422417815,-0.069453224447459438,-0.0066940792188929267,-0.42403508482022612,0.008479093941168343,
0.44978499999999999,-10.140978881711806,-0.66745500376167244,-0.39336031953387857,-9.6672647852806097,0.09449240228873497,-0.071129929099843545,-0.006630960590425874,-0.42327355309548947,0.0083399410279596919,
0.45011099999999998,-10.106195120720736,-0.66731585573290098,-0.39258391270679593,-9.6672647851363553,0.094452972648183156,-0.072845214633699501,-0.0066293229775172893,-0.42327307293785255,0.008339929990609684,
0.45119999999999999,-10.106195120545374,-0.66736433801299744,-0.3945084529190595,-9.6423054925426932,0.099152253960188591,-0.073268912976669001,-0.0068033551667971842,-0.42228325288568469,0.0082606391379817581,
0.45264500000000002,-10.106195120370012,-0.6674128202930939,-0.39643299313132307,-9.6113013078423908,0.1016484002614466,-0.074866377486792576,-0.00694441233363905,-0.42086758225984239,0.0082074137926985962,
0.45403399999999999,-10.097997634051934,-0.65760104754619453,-0.39959138051390736,-9.611301307678902,0.10160320042959477,-0.076660618471607031,-0.0069425257109709945,-0.42086707999975642,0.0082074011401267397,
0.45407500000000001,-10.097997633876572,-0.65764952982629099,-0.40151592072617093,-9.5832092444544585,0.1024947570272956,-0.077818238648720048,-0.0068757284390890969,-0.41957940771919677,0.0082788907926971567,
0.45548699999999998,-10.09799763370121,-0.65769801210638745,-0.4034404609384345,-9.5679256704130413,0.109829621320038,-0.078305812540973269,-0.0073255986304027569,-0.41887042370852401,0.0082014979920132739,
0.45691999999999999,-10.097997633525848,-0.65774649438648392,-0.40536500115069807,-9.5631174340392153,0.11484098365069501,-0.079662890156854821,-0.0073814591435708158,-0.41875951564008052,0.0082897486092626746,
0.457986,-10.05478880478335,-0.6522451211508592,-0.40813214767352163,-9.5631174338757265,0.11479578381884317,-0.081457131141669276,-0.0073795725209027602,-0.41875901337999455,0.008289735956690818,
0.458366,-10.054788804607988,-0.65229360343095566,-0.4100566878857852,-9.5569627476877734,0.11672054851651287,-0.082924572727799573,-0.0074632459073662848,-0.41861560990628,0.0082788227106675733,
0.45979999999999999,-10.054788804432626,-0.65234208571105212,-0.41198122809804877,-9.5382593540633955,0.12002467950543864,-0.082626205749062001,-0.0077049371544697081,-0.41781411876898911,0.0083630760507168236,
0.46121600000000001,-10.054788804236633,-0.65239572568052095,-0.41395002128512398,-9.5115374544000808,0.11594114353145353,-0.083207788591211196,-0.0073919138328647641,-0.41665358025674082,0.008256392979486063,
0.46192499999999997,-10.014440667626168,-0.64749980737924651,-0.41081946381392309,-9.5115374542173576,0.1158911352068512,-0.085043286443822474,-0.0073898183672776304,-0.41665306644698175,0.0082563789808958229,
0.46265200000000001,-10.014440667430176,-0.64755344734871534,-0.4127882570009983,-9.4841071329279369,0.11546006179749149,-0.085448061399087324,-0.0073745469529523525,-0.41536643621975411,0.0081766450090875673,
0.46410000000000001,-10.014440667234183,-0.64760708731818417,-0.41475705018807352,-9.4664762505216036,0.11473906752139089,-0.085104138028662416,-0.007374130524195676,-0.41448813267598539,0.0084572426889571884,
0.46553099999999997,-10.01444066703819,-0.647660727287653,-0.41672584337514873,-9.4610802612030653,0.1122539571612972,-0.085500833931427267,-0.0070753678649297016,-0.41423275101491147,0.0086853247400593483,
0.46582899999999999,-9.9801165591787644,-0.64168721040420673,-0.41347535944481717,-9.4610802610203422,0.11220394883669486,-0.087336331784038546,-0.0070732723993425679,-0.4142322372051524,0.0086853107414691082,
0.46694400000000003,-9.9801165589827718,-0.64174085037367556,-0.41544415263189238,-9.4657070997276875,0.11365616488846983,-0.087863016031279106,-0.0073245225611836134,-0.4145352537860677,0.0087026796405114005,
0.468389,-9.9801165587867793,-0.6417944903431444,-0.4174129458189676,-9.4676798213249427,0.10823281196593548,-0.089511986670511204,-0.0070744077042845729,-0.4145850302313327,0.0086009886289452331,
0.46976699999999999,-9.9348938163539398,-0.64078169465323276,-0.41413205541282505,-9.4676798211422195,0.10818280364133315,-0.091347484523122482,-0.0070723122386974393,-0.41458451642157362,0.008600974630354993,
0.46982600000000002,-9.9348938161579472,-0.64083533462270159,-0.41610084859990026,-9.4686934886037619,0.10299705687589795,-0.093866473463210462,-0.0067717677457571485,-0.414657206906488,0.0087783376233628394,
0.47126200000000001,-9.934893815941324,-0.64089413228154213,-0.41811729883677268,-9.4667709285489359,0.10413091465335844,-0.096468625230670943,-0.0070242341737541854,-0.4144227088182017,0.0087387851300433222,
0.47267900000000002,-9.9348938157247009,-0.64095292994038267,-0.42013374907364509,-9.4668698589907354,0.098955788602123118,-0.10110143732655379,-0.006733024789976113,-0.41430846021473411,0.0085870996171756031,
0.47370800000000002,-9.9332806129038484,-0.64003898637413625,-0.42013737071125573,-9.4668698587887778,0.098900971784770794,-0.10298136565217703,-0.0067307206540941312,-0.4143079339669305,0.0085870842725669794,
0.47411300000000001,-9.9332806126872253,-0.64009778403297679,-0.42215382094812814,-9.4765439332293777,0.096062018891757972,-0.10805975534945426,-0.006601329972183898,-0.4147034688390358,0.0087254638369326457,
0.47554800000000003,-9.9332806124706021,-0.64015658169181733,-0.42417027118500056,-9.4912955001467338,0.097724548457104488,-0.11321175706764433,-0.0067480503267439082,-0.41505186393690791,0.0087874367169300908,
0.47698499999999999,-9.933280612253979,-0.64021537935065786,-0.42618672142187297,-9.5253931678887742,0.092879627463107503,-0.11812014932680048,-0.0064622630215564582,-0.41654781816811287,0.0087099080570941269,
0.47765099999999999,-9.9292388542249483,-0.63911503219554733,-0.43148809662170678,-9.5253931676868167,0.092824810645755179,-0.12000007765242372,-0.0064599588856744765,-0.41654729192030926,0.0087098927124855032,
0.478433,-9.9292388540083252,-0.63917382985438786,-0.4335045468585792,-9.5639286250661133,0.091772911612088046,-0.12448137729601727,-0.0065383022005558586,-0.41811472084280615,0.0083730708168674867,
0.47984399999999999,-9.929238853791702,-0.6392326275132284,-0.43552099709545161,-9.6056873220170456,0.091256309923811396,-0.12895599233546462,-0.0065405070474235357,-0.42000391625187133,0.0083989580592444251,
0.48130499999999998,-9.9292388535544482,-0.63929761439931543,-0.43760099006538689,-9.6313354044384045,0.089385009005414601,-0.13411350001640113,-0.0065571989636035019,-0.42118340367099621,0.0084363027141815868,
0.48156300000000002,-9.9467219546928369,-0.63723078285159584,-0.4424621982805878,-9.6313354042172143,0.08932442199676191,-0.13605266897270699,-0.0065546447455995379,-0.4211828608394147,0.0084362857543511128,
0.48272100000000001,-9.9467219544555832,-0.63729576973768287,-0.44454219125052308,-9.6461542952080173,0.089016793767714764,-0.14080988391360508,-0.0065895334397803275,-0.42152652868184792,0.008357346719114719,
0.484157,-9.9467219542183294,-0.6373607566237699,-0.44662218422045835,-9.667118028494107,0.085275202800446107,-0.14608619781969556,-0.006574160594043383,-0.42238791238228846,0.0081621822161387306,
0.48548799999999998,-10.003654868779231,-0.63551167333765868,-0.45580995300749055,-9.6671180282729168,0.085214615791793416,-0.14802536677600142,-0.006571606376039419,-0.42238736955070694,0.0081621652563082566,
0.48559799999999997,-10.003654868541977,-0.6355766602237457,-0.45788994597742583,-9.6989373774590728,0.090295094726257449,-0.15263393514122869,-0.0068107960416946027,-0.42352273224282705,0.0080679719688938889,
0.48702299999999998,-10.003654868304723,-0.63564164710983273,-0.4599699389473611,-9.7409919458623584,0.091157376483052444,-0.15637674095052673,-0.0068536418130843791,-0.42542391446099614,0.0081615743925306048,
0.48845899999999998,-10.00365486806747,-0.63570663399591976,-0.46204993191729637,-9.7785202804708558,0.094004175020744957,-0.15977297817966507,-0.0070744774621034597,-0.42701207587462003,0.0080299228665529649,
0.48940899999999998,-10.040476379341584,-0.64076421774535297,-0.47265942703328712,-9.7785202802496656,0.093943588012092266,-0.16171214713597093,-0.0070719232440994957,-0.42701153304303852,0.0080299059067224909,
0.48988199999999998,-10.04047637910433,-0.64082920463144,-0.47473942000322239,-9.8011949859917813,0.0945915887627609,-0.1627711942145694,-0.0072680579259094919,-0.4281024996205226,0.0077808092311908352,
0.49131399999999997,-10.04047637883613,-0.64090038074477351,-0.47690410223264573,-9.8060380035970542,0.088637323960231731,-0.16488899827277695,-0.0069219816146897234,-0.42827153481795099,0.0077127597086874633,
0.49274699999999999,-10.040476378567931,-0.64097155685810703,-0.47906878446206907,-9.8033191405206423,0.085258666598168595,-0.1670139579958497,-0.0067588958443586073,-0.42811472456703531,0.0076398281667233656,
0.49334,-10.074860206353579,-0.6371098544597289,-0.48901369306285219,-9.8033191402706006,0.085192309398215538,-0.16903208240311407,-0.0067560926165951569,-0.42811415963258259,0.007639809591670519,
0.494172,-10.074860206085379,-0.63718103057306241,-0.49117837529227554,-9.8055476445889145,0.082504115543673942,-0.17004745064879906,-0.0066035547869535667,-0.42780600076365038,0.0078347772343678127,
0.49561100000000002,-10.074860205817179,-0.63725220668639593,-0.49334305752169888,-9.8308538022327632,0.08244095204568741,-0.17223425617515312,-0.0065857859940795004,-0.42896740073300066,0.0079733539985153735,
0.49706699999999998,-10.07486020554898,-0.63732338279972944,-0.49550773975112222,-9.8654692970232709,0.086279736516971031,-0.17255063190446981,-0.006830422517344616,-0.43039653961603058,0.0081031996960811009,
0.49727700000000002,-10.111570793057094,-0.63387042434326824,-0.49675842424929967,-9.8654692967732291,0.086213379317017974,-0.17456875631173419,-0.0068276192895811655,-0.43039597468157786,0.0081031811210282544,
0.498477,-10.111570792788894,-0.63394160045660175,-0.49892310647872301,-9.9080890723540502,0.086186517782454897,-0.17292934217834605,-0.0068625849603918794,-0.43251412275227852,0.0083700009472124116,
0.49994899999999998,-10.111570792500064,-0.63402206041080478,-0.5011986790296441,-9.9313985863189149,0.079005731571413051,-0.17088229210737615,-0.0065542201823169067,-0.43358840225548156,0.0081305316965886738,
0.50121099999999996,-10.16726834150249,-0.64412540520745132,-0.50534903431289768,-9.9313985860496388,0.078930719084509715,-0.17300379910877009,-0.0065510426212570163,-0.43358780838081173,0.0081305106987035747,
0.50140799999999996,-10.16726834121366,-0.64420586516165435,-0.50762460686381872,-9.9342009760128462,0.066339306732591252,-0.16966443637018588,-0.0059257679072214908,-0.43368492928672087,0.0082591297866748334,
0.50278,-10.16726834092483,-0.64428632511585737,-0.50990017941473975,-9.9276344070160061,0.056489790074040695,-0.16729805802113584,-0.0054547040583246068,-0.4334994752278985,0.0081404942404749089,
0.50419800000000004,-10.167268340635999,-0.6443667850700604,-0.51217575196566079,-9.9148329263556931,0.051299448251925207,-0.16568817287525153,-0.0052254888430429162,-0.43265441457449438,0.0082118730981372151,
0.50513200000000003,-10.219268428667801,-0.66486741154715245,-0.51584502043753899,-9.914832926086417,0.051224435765021871,-0.16780967987664547,-0.0052223112819830258,-0.43265382069982455,0.008211852100252116,
0.505637,-10.219268428378971,-0.66494787150135548,-0.51812059298846003,-9.9278995846829705,0.052514287718128369,-0.16673388880316631,-0.0053288094969549523,-0.43340533327938119,0.008271573448332268,
0.50706600000000002,-10.219268428090141,-0.66502833145555851,-0.52039616553938106,-9.9465568786968976,0.059571002650893393,-0.16635588639217355,-0.005819081150849597,-0.43411981950459255,0.0083380387460699149,
0.50853199999999998,-10.21926842780131,-0.66510879140976154,-0.5226717380903021,-9.9695867951353829,0.057883415547162489,-0.1658572289270436,-0.0056506440531166949,-0.43548254097543854,0.0085529359823590147,
0.50906499999999999,-10.228013288435795,-0.68328281880040376,-0.51129720350280872,-9.9695867948661068,0.057808403060259153,-0.16797873592843754,-0.0056474664920568044,-0.43548194710076871,0.0085529149844739156,
0.50992999999999999,-10.228013288146965,-0.68336327875460678,-0.51357277605372975,-9.9701357363829199,0.053916359346479481,-0.16728455995574124,-0.005473530155895019,-0.43546556688028193,0.0083351148751364193,
0.51136000000000004,-10.228013287816873,-0.68345302254967932,-0.51595758846554951,-9.9639981578697352,0.053381229868353842,-0.16657995340561554,-0.0055436802484717419,-0.43535834875500656,0.0082117768673037553,
0.51279699999999995,-10.228013287486782,-0.68354276634475186,-0.51834240087736927,-9.9468966141470148,0.049440169170425333,-0.16659300051613005,-0.0052475288816779819,-0.43446778459365204,0.0080278740278645119,
0.51301600000000003,-10.273623399653776,-0.68648121408478446,-0.51502490986411931,-9.9468966138392716,0.04935650139657171,-0.1688163513939735,-0.0052439769036250654,-0.43446716220864634,0.0080278506071461142,
0.51425600000000005,-10.273623399323684,-0.686570957879857,-0.51740972227593907,-9.936147401053951,0.056673013852990166,-0.16862199523697577,-0.0056000456309081952,-0.43391368158918103,0.0081071594580500207,
0.51564699999999997,-10.273623398993593,-0.68666070167492954,-0.51979453468775882,-9.940179293061,0.066433533725674163,-0.16770451759507929,-0.006082974172081047,-0.43415429566185326,0.0082752331695754092,
0.51697300000000002,-10.316227971752312,-0.68009777763497514,-0.51641192440009043,-9.9401792927532568,0.066349865951820547,-0.16992786847292274,-0.0060794221940281305,-0.43415367327684756,0.0082752097488570115,
0.51708799999999999,-10.31622797142222,-0.68018752143004768,-0.51879673681191019,-9.9524372303845698,0.070632882520145157,-0.16989463679182573,-0.0062285283263626041,-0.43472212386273534,0.0084153086704628986,
0.51852900000000002,-10.316227971092129,-0.68027726522512022,-0.52118154922372995,-9.9594757264674314,0.073825988458446207,-0.17004659998316379,-0.0064411918913570175,-0.43535659658334114,0.0084542683043990711,
0.51996200000000004,-10.316227970762037,-0.68036700902019276,-0.5235663616355497,-9.9491316255362463,0.070815843277683407,-0.17154884858010608,-0.0062602029693150773,-0.4347894153339496,0.008643781254659923,
0.52094799999999997,-10.305048694454955,-0.67451522249755969,-0.52076190526975974,-9.9491316251900344,0.070722558518329301,-0.17388519903757954,-0.0062562349636626196,-0.43478876131584782,0.00864375514190476,
0.52138499999999999,-10.305048694083601,-0.67461528167137619,-0.52326792338182126,-9.9361294851092872,0.071238254765101913,-0.17528086695308231,-0.0061143953477106024,-0.43448358621202815,0.0085885433778241285,
0.52283599999999997,-10.305048693712246,-0.67471534084519269,-0.52577394149388279,-9.9170719572457973,0.079657683717446637,-0.17693850305921979,-0.0065169941370833949,-0.43343343743394647,0.0083778279252221203,
0.52427999999999997,-10.305048693340892,-0.67481540001900919,-0.52827995960594432,-9.9061051719187372,0.081680230683254057,-0.18009442012222668,-0.0065883636782269944,-0.43313585431340867,0.0083714907092725145,
0.52488699999999999,-10.301760573292126,-0.68198094469024229,-0.52369354296116299,-9.9061051715725252,0.081586945923899951,-0.18243077057970014,-0.0065843956725745367,-0.43313520029530689,0.0083714645965173515,
0.52572300000000005,-10.301760572920772,-0.68208100386405879,-0.52619956107322452,-9.8957079470111555,0.083965053388841401,-0.18466801426965193,-0.0066324889309117129,-0.43244668683409221,0.0083652192482176098,
0.52713500000000002,-10.301760572549417,-0.68218106303787529,-0.52870557918528605,-9.8975459999499318,0.086829440634513755,-0.18661714816433486,-0.0068426624658011583,-0.43278166591669148,0.0084386991050431071,
0.52859100000000003,-10.301760572178063,-0.68228112221169179,-0.53121159729734757,-9.8898277384492097,0.082457784246360397,-0.18835953166865987,-0.0065694015963123917,-0.43254873899783286,0.008545477810115899,
0.52881500000000004,-10.298691115168843,-0.67944910149955617,-0.52649742850294812,-9.8898277381029978,0.08236449948700629,-0.19069588212613334,-0.006565433590659934,-0.43254808497973107,0.0085454516973607359,
0.53002499999999997,-10.298691114756227,-0.6795605075899912,-0.52913176992658473,-9.8696738566134634,0.081288374851329628,-0.19455621621044353,-0.0066143023261794678,-0.43169595826815665,0.0083938822262547477,
0.53145299999999995,-10.298691114343612,-0.67967191368042623,-0.53176611135022134,-9.8412584864202763,0.081555310792647884,-0.19769357912318525,-0.0067629244392814212,-0.430552534083532,0.008529610416663223,
0.53275300000000003,-10.293600841788843,-0.6771435439434792,-0.53492066817709649,-9.8412584860355974,0.081451447349243256,-0.20014956488028399,-0.0067584985495641953,-0.4305518465748302,0.0085295813426678278,
0.53286199999999995,-10.293600841376227,-0.67725495003391423,-0.5375550096007331,-9.8081740717888888,0.084325700507324255,-0.20520668836445083,-0.0067999669773696264,-0.42900164566553817,0.0083275462461100454,
0.53429199999999999,-10.293600840963611,-0.67736635612434926,-0.54018935102436971,-9.7902020894342066,0.087810397326617065,-0.20944064365152204,-0.006886993410832808,-0.42815456026416082,0.0081552535239875872,
0.535748,-10.293600840550996,-0.67747776221478428,-0.54282369244800632,-9.7876146417691636,0.084752354414429784,-0.2144554702618737,-0.0067800891646606215,-0.42803919613507446,0.0081557442242695018,
0.53669,-10.245501576120125,-0.67115799434003798,-0.54717350312048008,-9.7876146413844847,0.084648490971025156,-0.21691145601897244,-0.0067756632749433957,-0.42803850862637266,0.0081557151502741065,
0.53716299999999995,-10.245501575707509,-0.67126940043047301,-0.54980784454411669,-9.7902092143315631,0.081740201918994823,-0.22026129200596092,-0.0067079033162082439,-0.42831674375900858,0.0081473799172753526,
0.53861000000000003,-10.245501575294893,-0.67138080652090804,-0.5524421859677533,-9.7853523760843171,0.084060514281515911,-0.22241740103195726,-0.0068311462105957498,-0.42825630789882135,0.0083719309663053652,
0.54002499999999998,-10.245501574851332,-0.67150459106583582,-0.55518205371594076,-9.7647929059367407,0.082342116772264981,-0.22505007169765112,-0.0066815145005985187,-0.42734717727480537,0.0082260957604367493,
0.54064199999999996,-10.200581800359926,-0.68148505415447569,-0.55909111852887816,-9.7647929055232101,0.0822267129462598,-0.22760443921641924,-0.0066765873533506936,-0.4273464622253223,0.0082260634559981755,
0.54144199999999998,-10.200581799916364,-0.68160883869940347,-0.56183098627706562,-9.734663230105193,0.082346712254548426,-0.22999771434025049,-0.006637939819867422,-0.42613283997094686,0.0082513917925597612,
0.54290000000000005,-10.200581799472802,-0.68173262324433126,-0.56457085402525309,-9.6999453022673112,0.086377574899938733,-0.23252160954975468,-0.006741634117207098,-0.42452268167377982,0.0085315200235422401,
0.54431799999999997,-10.200581799029241,-0.68185640778925904,-0.56731072177344055,-9.6699989152381836,0.084130657452344937,-0.23793062490804948,-0.0066291018109783228,-0.42313988598879015,0.0085063261888243605,
0.54458300000000004,-10.204696095552919,-0.69067255870932953,-0.57383866127498018,-9.669998914824653,0.084015253626339756,-0.24048499242681759,-0.0066241746637304977,-0.42313917093930709,0.0085062938843857867,
0.54575099999999999,-10.204696095109357,-0.69079634325425732,-0.57657852902316764,-9.6585329683331533,0.093214672293270323,-0.24357320615726238,-0.0071387824288463245,-0.4226789824563682,0.0084550079463696481,
0.54718699999999998,-10.204696094665795,-0.6909201277991851,-0.5793183967713551,-9.6505401275027882,0.098124037788015817,-0.24770046119115349,-0.0072176701374348437,-0.42250649041736354,0.0083034992944686567,
0.54852900000000004,-10.153107195621514,-0.687945216772475,-0.60485603956635559,-9.6505401270892577,0.098008633962010636,-0.25025482870992161,-0.0072127429901870186,-0.42250577536788048,0.0083034669900300829,
0.548628,-10.153107195177952,-0.68806900131740278,-0.60759590731454305,-9.6308233712682068,0.10377393800121587,-0.25506378336274571,-0.007522951355795204,-0.42181515726001045,0.0087199933118657421,
0.55005899999999996,-10.153107194682814,-0.68820206970320008,-0.61040014302609291,-9.6039134321070847,0.10942520657437696,-0.25813155745493405,-0.0076712613589048611,-0.42065335760356043,0.0084950864448364669,
0.55147599999999997,-10.153107194187676,-0.68833513808899738,-0.61320437873764277,-9.5710440242218144,0.11082917240284992,-0.2641417875744923,-0.0077812494603513131,-0.41915389823551114,0.0081030477264026832,
0.55245999999999995,-10.104947281069109,-0.73843081390833665,-0.61042984427547031,-9.5710440237601997,0.11070511328989445,-0.26675616508278305,-0.0077759456206095562,-0.41915316638562083,0.0081030129991302886,
0.55291400000000002,-10.10494728057397,-0.73856388229413394,-0.61323407998702018,-9.5466578298576863,0.11390737981034332,-0.27002583713390016,-0.0076759505004883946,-0.41822247487947983,0.008125345726828161,
0.55434499999999998,-10.104947280078832,-0.73869695067993124,-0.61603831569857004,-9.5287561877154801,0.12013491777127248,-0.2743537963814327,-0.0080714843373736848,-0.41731270306457086,0.0084920340235998433,
0.55577299999999996,-10.104947279583694,-0.73883001906572854,-0.6188425514101199,-9.5182942119001375,0.11917150025168603,-0.27835909980148993,-0.0078806095157266144,-0.41709072830788829,0.0084992356415147033,
0.55641600000000002,-10.061557551263821,-0.71431453356153318,-0.61970623810518655,-9.5182942114385227,0.11904744113873056,-0.28097347730978067,-0.0078753056759848575,-0.41708999645799799,0.0084992009142423088,
0.55718800000000002,-10.061557550768683,-0.71444760194733048,-0.62251047381673641,-9.5071302417166539,0.11846758436477024,-0.2845581822893265,-0.0078089667946865974,-0.41641103081359876,0.0083910427889261948,
0.55862800000000001,-10.061557550273545,-0.71458067033312778,-0.62531470952828627,-9.5031902147520881,0.11573733169913614,-0.28768362630708344,-0.0077831733565362042,-0.41652051918244515,0.0083095873102541386,
0.56006699999999998,-10.061557549747461,-0.71472405409766904,-0.62814421791775887,-9.4824070535376599,0.10700355669171793,-0.29281949090396497,-0.0075356066594519247,-0.41541267985076913,0.0081645408353078885,
0.56036799999999998,-10.043599175869979,-0.70450828620611483,-0.60456636634391825,-9.4824070530471936,0.10686988059326197,-0.2954574300267318,-0.0075298819272466202,-0.41541194140412735,0.0081645034159992507,
0.56156399999999995,-10.043599175343894,-0.70465166997065609,-0.60739587473339085,-9.4606892738142285,0.10084954647807511,-0.29939454598985354,-0.0072651367560759182,-0.41435274578890563,0.0084696099006739377,
0.56297699999999995,-10.04359917481781,-0.70479505373519735,-0.61022538312286345,-9.4464055477867195,0.10134497074882443,-0.30445483688675984,-0.0072663894041032281,-0.41348098074185896,0.0082626347941350924,
0.56437000000000004,-10.026816590088746,-0.69568291738561794,-0.61432826391088979,-9.4464055472962531,0.10121129465036846,-0.30709277600952667,-0.0072606646718979236,-0.41348024229521718,0.0082625973748264546,
0.56438299999999997,-10.026816589562662,-0.6958263011501592,-0.61715777230036239,-9.4492105265501394,0.096064153291146218,-0.31283146860288802,-0.0070768144306142065,-0.41373551576285789,0.0082612011413564484,
0.56579900000000005,-10.026816589036578,-0.69596968491470046,-0.619987280689835,-9.4559429953840475,0.09201232879495895,-0.31908797333503869,-0.0068620119690815237,-0.41394873841844715,0.0082747259875001391,
0.56723999999999997,-10.026816588510494,-0.69611306867924172,-0.6228167890793076,-9.4673102303518242,0.090768422659844361,-0.32516713930160013,-0.0068910934282711894,-0.41454472665953035,0.0085258797451696535,
0.56825000000000003,-9.9890862521058708,-0.69122608077647119,-0.62846745205569088,-9.4673102298613578,0.090634746561388396,-0.32780507842436696,-0.0068853686960658848,-0.41454398821288857,0.0085258423258610157,
0.56867100000000004,-9.9890862515797867,-0.69136946454101245,-0.63129696044516348,-9.4681143558185141,0.091969995177945185,-0.33361783101218662,-0.0068795266313781819,-0.41463372460329628,0.0084511053933385219,
0.57012200000000002,-9.9890862510227567,-0.69152006907067443,-0.63412430260509978,-9.455476829944752,0.08428996425952695,-0.34048824109050951,-0.0065862654789705204,-0.41390407386203831,0.0084218248468690762,
0.571546,-9.9890862504657267,-0.69167067360033641,-0.63695164476503607,-9.4513713706982259,0.079221207568715313,-0.34783884371172286,-0.0063314314828178831,-0.41355912633808689,0.0083467848904382972,
0.57218000000000002,-9.9880088738201014,-0.68836755210179845,-0.65174836670795133,-9.4513713701789079,0.079080799580409131,-0.35047476326753457,-0.0063254111189135626,-0.41355838845550591,0.0083467455867038201,
0.57295799999999997,-9.9880088732630714,-0.68851815663146043,-0.65457570886788763,-9.4634191089187656,0.081887593945948273,-0.35675165490271754,-0.0065105700142019532,-0.41398810852480677,0.0083092605041918174,
0.57440800000000003,-9.9880088727060414,-0.68866876116112241,-0.65740305102782393,-9.4840051417419549,0.082668791611022183,-0.36446558846108884,-0.0067555684227900408,-0.41478691507574006,0.00849011876166577,
0.57582100000000003,-9.9880088721490115,-0.68881936569078439,-0.66023039318776022,-9.5125555561581567,0.083577067523067927,-0.37113148452642797,-0.0067685967199011873,-0.41589865002302695,0.0086645929556936497,
0.57610700000000004,-9.9870031450253265,-0.68583763587331947,-0.67400470630318621,-9.5125555556388388,0.083436659534761745,-0.37376740408223968,-0.0067625763559968667,-0.41589791214044597,0.0086645536519591726,
0.57725499999999996,-9.9870031444682965,-0.68598824040298145,-0.6768320484631225,-9.5407958018891623,0.087295715166511106,-0.37632869153395998,-0.0068944035975018374,-0.41715412158059367,0.0086037461508443186,
0.578712,-9.9870031439112665,-0.68613884493264343,-0.6796593906230588,-9.5610237014109902,0.086181398177531093,-0.38031445684089166,-0.006926012557932567,-0.41807773472100107,0.0086544878507721096,
0.58004800000000001,-10.013373984358539,-0.68318886255571709,-0.69352717396736263,-9.5610237008916723,0.086040990189224911,-0.38295037639670337,-0.0069199921940282464,-0.41807699683842009,0.0086544485470376326,
0.58012600000000003,-10.013373983801509,-0.68333946708537907,-0.69635451612729893,-9.5682361150521391,0.077111963146845458,-0.38487909787274516,-0.0063821031994902005,-0.41826370984816069,0.0083892802225702997,
0.58154899999999998,-10.013373983223849,-0.68349729238016177,-0.6991810330569358,-9.5698300889022523,0.075350893340462077,-0.388448182824222,-0.0063268354367895414,-0.41835824354791057,0.008314771725872392,
0.58300300000000005,-10.013373982646188,-0.68365511767494447,-0.70200754998657267,-9.5720404402120032,0.077212027071273018,-0.39048246724098129,-0.0064197496099015414,-0.41821461930941661,0.0083277058056119759,
0.58398099999999997,-10.030216246607624,-0.69229332531306209,-0.71489391870190855,-9.5720404396734526,0.077064887193116619,-0.39311761743795298,-0.0064134336823016792,-0.41821388164135403,0.0083276646174521799,
0.58441900000000002,-10.030216246029964,-0.69245115060784479,-0.71772043563154542,-9.5839859998098902,0.076220142988592754,-0.39939733462155969,-0.0062992976035731313,-0.41865909412785363,0.0083690107892512803,
0.58586300000000002,-10.030216245452303,-0.69260897590262749,-0.72054695256118229,-9.6082485659877399,0.07848062253011423,-0.40338518591854466,-0.0064993198292518754,-0.41952125790596523,0.0084023985963226928,
0.58728800000000003,-10.030216244874643,-0.69276680119741019,-0.72337346949081915,-9.6395990548504713,0.076704839596098529,-0.40870642878179142,-0.006598329490945895,-0.42090120780186879,0.0083882361432832467,
0.58795799999999998,-10.045951609184259,-0.70038890227215844,-0.72398021914465616,-9.6395990543119208,0.076557699717942129,-0.41134157897876311,-0.0065920135633460329,-0.42090047013380621,0.0083881949551234507,
0.58870999999999996,-10.045951608606599,-0.70054672756694114,-0.72680673607429302,-9.6753870286590562,0.070872055800129799,-0.41562527588742088,-0.0062385608723002084,-0.42232541338463758,0.0082806833377042696,
0.59018499999999996,-10.04595160797736,-0.70071796285409127,-0.72972279049142752,-9.7129734041625166,0.071630087348832222,-0.41907137950583417,-0.0063558841472895269,-0.42429764789400409,0.0082970230779106091,
0.59160299999999999,-10.045951607348121,-0.7008891981412414,-0.73263884490856201,-9.730109374322474,0.066953546303258935,-0.42004704192378334,-0.0062491438455145806,-0.42485656510869035,0.0085176754660039686,
0.59186099999999997,-10.082861882787078,-0.6925332955578607,-0.7417472980853953,-9.7301093737358375,0.066793904343951771,-0.42276566755489869,-0.0062422836321666944,-0.42485580407165596,0.0085176307781964829,
0.59304400000000002,-10.08286188215784,-0.69270453084501082,-0.7446633525025298,-9.740034318626428,0.057256639493524504,-0.42257313585608802,-0.0057598121409129042,-0.42529565178313133,0.0081269733249008259,
0.59445499999999996,-10.082861881528601,-0.69287576613216095,-0.74757940691966429,-9.7425478688630651,0.049605594593939324,-0.42065198776410323,-0.0054922732718253493,-0.42514412211119607,0.0077862188259434249,
0.59582400000000002,-10.114482867944925,-0.70157172886614061,-0.75603419274231731,-9.7425478682764286,0.049445952634632161,-0.42337061339521859,-0.0054854130584774631,-0.42514336107416167,0.0077861741381359392,
0.59588300000000005,-10.114482867315687,-0.70174296415329074,-0.75895024715945181,-9.7520422211544329,0.032631189874394576,-0.420464349668002,-0.0046477187049232043,-0.42560144403456496,0.0078560281478808579,
0.59734799999999999,-10.114482866686448,-0.70191419944044087,-0.7618663015765863,-9.7708362829811453,0.020765710815588121,-0.41971396710295239,-0.0041286890054938229,-0.42627126152168576,0.0080878188271183479,
0.59873900000000002,-10.114482866057209,-0.702085434727591,-0.7647823559937208,-9.8012961564618664,0.023339777907265009,-0.4193180322856776,-0.00426369765433677,-0.42775422346084307,0.0081382148878330323,
0.599773,-10.144010466155381,-0.70974729682935789,-0.76271300216874471,-9.8012961558752298,0.023180135947957849,-0.42203665791679296,-0.0042568374409888837,-0.42775346242380868,0.0081381702000255466,
0.60017100000000001,-10.14401046546425,-0.70993503672249814,-0.76575356320731902,-9.8210006446935285,0.022938660602832884,-0.42271048830334351,-0.0042609879605804259,-0.42875576237977747,0.0082381842163880073,
0.60162700000000002,-10.144010464773119,-0.71012277661563838,-0.76879412424589333,-9.8234041385525597,0.026879232922696981,-0.42331173511767445,-0.0043950052116454759,-0.42893692977689007,0.0082358522668811961,
0.60303499999999999,-10.144010464081989,-0.71031051650877863,-0.77183468528446764,-9.8158834600141223,0.02988235871399833,-0.4233603864375371,-0.0046587888149948247,-0.42853104135335884,0.0078488727510732034,
0.60367000000000004,-10.19267189547284,-0.72270371246884368,-0.76705740586092541,-9.8158834593697843,0.029707329577890663,-0.42619508908364262,-0.0046512594370000755,-0.42853024782093285,0.007848823756007102,
0.60446100000000003,-10.192671894781709,-0.72289145236198393,-0.77009796689949972,-9.8045722011978711,0.025006767949752196,-0.42639267796819003,-0.0042272590873003255,-0.42795902915449663,0.0081228998158933974,
0.60589499999999996,-10.192671894090578,-0.72307919225512418,-0.77313852793807403,-9.8090680303532913,0.029601047576825749,-0.42577095135104009,-0.0043941450900696795,-0.42794939585706382,0.0082172074555794603,
0.60733899999999996,-10.192671893399448,-0.72326693214826443,-0.77617908897664833,-9.8298272082101725,0.038645933525854798,-0.42566827633766136,-0.0049311766156381939,-0.42900472875382495,0.0077329240650074287,
0.60759200000000002,-10.225876938782319,-0.72371325107084039,-0.7712126554670351,-9.8298272075658346,0.038470904389747131,-0.42850297898376688,-0.0049236472376434446,-0.42900393522139896,0.0077328750699413263,
0.60877499999999996,-10.225876938091188,-0.72390099096398064,-0.77425321650560941,-9.8474100604436003,0.054093609085318073,-0.42763015981396985,-0.0054823961859018768,-0.42989787062936596,0.0079869999633991415,
0.61022900000000002,-10.225876937338166,-0.72410729853886024,-0.77744706407231923,-9.8444629704001958,0.071319812691131357,-0.42735556665852559,-0.0062548715446787695,-0.42983964828652377,0.0082175173072182167,
