time,ax,ay,az,fx,fy,fz,tx,ty,tz,
0,-9.6686894329730286,-0.74012813951318757,-0.20856736664038941,-9.1814186184519535,0.049880575157642326,0.098882547271252008,-0.0048618015845418028,-0.4010478662467003,0.0088522477833032631,
0.0012979999999999999,-9.6686894329730286,-0.74012813951318757,-0.20856736664038941,-9.1814186184519535,0.049880575157642326,0.098882547271252008,-0.0048618015845418028,-0.4010478662467003,0.0088522477833032631,
0.001436,-9.6686894329730286,-0.74012813951318757,-0.20856736664038941,-9.1981386184519529,0.056208575157642326,0.13698254727125203,-0.0047558015845418078,-0.40186786624670034,0.0087702477833032644,
0.0028969999999999998,-9.6686894329730286,-0.74012813951318757,-0.20856736664038941,-9.2106236184519528,0.045521575157642324,0.098682547271252474,-0.0046538015845418168,-0.40259786624670024,0.0084702477833032697,
0.0043239999999999997,-9.6686894329730286,-0.74012813951318757,-0.20856736664038941,-9.2152216184519524,0.037766575157642368,0.12928254727125221,-0.0042958015845417918,-0.40227786624670037,0.0085102477833032542,
0.0052040000000000003,-9.6662957929730275,-0.73533791651318747,-0.1870128346403894,-9.2152216184519524,0.037766575157642368,0.12928254727125221,-0.0042958015845417918,-0.40227786624670037,0.0085102477833032542,
0.0057489999999999998,-9.6662957929730275,-0.73533791651318747,-0.1870128346403894,-9.2276016184519527,0.047768575157642323,0.099482547271252386,-0.0046008015845417916,-0.40391786624670023,0.0088712477833032544,
0.0071799999999999998,-9.6662957929730275,-0.73533791651318747,-0.1870128346403894,-9.2428596184519538,0.058358575157642312,0.12118254727125155,-0.005550801584541798,-0.40411786624670021,0.0082472477833032687,
0.0085979999999999997,-9.6662957929730275,-0.73533791651318747,-0.1870128346403894,-9.2644956184519529,0.028578575157642394,0.10688254727125113,-0.005000801584541803,-0.40509786624670019,0.0085062477833032502,
0.0091409999999999998,-9.6686894329730286,-0.73533791651318747,-0.1870128346403894,-9.2644956184519529,0.028578575157642394,0.10688254727125113,-0.005000801584541803,-0.40509786624670019,0.0085062477833032502,
0.010023000000000001,-9.6686894329730286,-0.73533791651318747,-0.1870128346403894,-9.2509696184519523,0.063808575157642378,0.14388254727125194,-0.0056908015845417714,-0.40440786624670033,0.0081452477833032499,
0.011448,-9.6686894329730286,-0.73533791651318747,-0.1870128346403894,-9.3066536184519535,0.12848757515764242,0.21898254727125099,-0.012085801584541811,-0.40541786624670029,0.0083952477833032502,
0.012886,-9.6686894329730286,-0.73533791651318747,-0.1870128346403894,-9.3851396184519533,-0.036558424842357606,0.19258254727125212,0.0025411984154581901,-0.41111786624670033,0.0077452477833032662,
0.013103999999999999,-9.6686894329730286,-0.73533791651318747,-0.18940745564038941,-9.3851396184519533,-0.036558424842357606,0.19258254727125212,0.0025411984154581901,-0.41111786624670033,0.0077452477833032662,
0.014319,-9.6686894329730286,-0.73533791651318747,-0.18940745564038941,-9.3606666184519529,0.039827575157642348,0.20538254727125249,-0.0042758015845417718,-0.40979786624670034,0.007609247783303269,
0.015737999999999999,-9.6686894329730286,-0.73533791651318747,-0.18940745564038941,-9.2556156184519534,0.09113357515764231,0.22668254727125081,-0.0090858015845418083,-0.4027078662467003,0.0082502477833032717,
0.017070999999999999,-9.7237725829730266,-0.66588213551318753,-0.079236643040389382,-9.2556156184519534,0.09113357515764231,0.22668254727125081,-0.0090858015845418083,-0.4027078662467003,0.0082502477833032717,
0.017180000000000001,-9.7237725829730266,-0.66588213551318753,-0.079236643040389382,-9.2163206184519524,-0.041808424842357583,0.016782547271251502,0.003971198415458177,-0.40147786624670023,0.0081382477833032707,
0.018627000000000001,-9.7237725829730266,-0.66588213551318753,-0.079236643040389382,-9.2562766184519525,0.24202057515764241,0.21078254727125234,-0.012766801584541798,-0.40376786624670036,0.0087522477833032741,
0.020055,-9.7237725829730266,-0.66588213551318753,-0.079236643040389382,-9.3764186184519538,0.21604957515764234,0.16648254727125256,-0.017538801584541797,-0.41023786624670033,0.0094132477833032691,
0.020967,-9.6926356429730287,-0.73773253751318757,-0.079236643040389382,-9.3764186184519538,0.21604957515764234,0.16648254727125256,-0.017538801584541797,-0.41023786624670033,0.0094132477833032691,
0.021492000000000001,-9.6926356429730287,-0.73773253751318757,-0.079236643040389382,-9.4374086184519523,-0.097038424842357696,0.17888254727125208,0.0078231984154581991,-0.41058786624670018,0.0076552477833032595,
0.022911999999999998,-9.6926356429730287,-0.73773253751318757,-0.079236643040389382,-9.413019618451953,0.10539057515764239,0.25898254727125192,-0.010002801584541809,-0.41351786624670028,0.0084722477833032717,
0.024362999999999999,-9.6926356429730287,-0.73773253751318757,-0.079236643040389382,-9.3045496184519525,-0.020818424842357741,0.24598254727125202,0.00064419841545820811,-0.40459786624670024,0.0088372477833032481,
0.024902000000000001,-9.6926356429730287,-0.73773253751318757,-0.096001834940389386,-9.3045496184519525,-0.020818424842357741,0.24598254727125202,0.00064419841545820811,-0.40459786624670024,0.0088372477833032481,
0.025808000000000001,-9.6926356429730287,-0.73773253751318757,-0.096001834940389386,-9.2849966184519523,0.018630575157642326,0.12278254727125137,-0.0017888015845418104,-0.40473786624670027,0.0084172477833032722,
0.027241000000000001,-9.6926356429730287,-0.73773253751318757,-0.096001834940389386,-9.3738336184519522,0.26563657515764239,0.13338254727125154,-0.019153801584541774,-0.41057786624670034,0.008052247783303268,
0.028642999999999998,-9.6926356429730287,-0.73773253751318757,-0.096001834940389386,-9.4569616184519525,0.099427575157642334,0.14738254727125089,-0.0054078015845417937,-0.41341786624670029,0.0091882477833032661,
0.028843000000000001,-9.8530585729730262,-0.68264742551318758,-0.086421683240389374,-9.4569616184519525,0.099427575157642334,0.14738254727125089,-0.0054078015845417937,-0.41341786624670029,0.0091882477833032661,
0.030075999999999999,-9.8530585729730262,-0.68264742551318758,-0.086421683240389374,-9.4007766184519532,0.13785957515764236,0.15998254727125172,-0.010526801584541778,-0.41015786624670025,0.0087762477833032704,
0.031517999999999997,-9.8530585729730262,-0.68264742551318758,-0.086421683240389374,-9.3282216184519537,0.034317575157642333,0.18458254727125123,-0.0039458015845417749,-0.41018786624670023,0.0088732477833032564,
0.032799000000000002,-9.9201589729730291,-0.67785720251318748,-0.086421683240389374,-9.3282216184519537,0.034317575157642333,0.18458254727125123,-0.0039458015845417749,-0.41018786624670023,0.0088732477833032564,
0.032983999999999999,-9.9201589729730291,-0.67785720251318748,-0.086421683240389374,-9.2665136184519525,-0.047638424842357585,0.14078254727125206,0.0035541984154581763,-0.40364786624670024,0.0093582477833032696,
0.034370999999999999,-9.9201589729730291,-0.67785720251318748,-0.086421683240389374,-9.3205326184519528,0.20746957515764242,0.16448254727125189,-0.014864801584541787,-0.40520786624670024,0.0082172477833032664,
0.035809000000000001,-9.9201589729730291,-0.67785720251318748,-0.086421683240389374,-9.3409476184519526,0.18328857515764241,0.096682547271251806,-0.011174801584541816,-0.40877786624670032,0.0077402477833032612,
0.036727000000000003,-9.9201589729730291,-0.67785720251318748,-0.11755705364038938,-9.3409476184519526,0.18328857515764241,0.096682547271251806,-0.011174801584541816,-0.40877786624670032,0.0077402477833032612,
0.037238,-9.9201589729730291,-0.67785720251318748,-0.11755705364038938,-9.3076306184519524,0.15147757515764237,0.06858254727125157,-0.0083058015845418054,-0.40598786624670025,0.0090242477833032686,
0.038689000000000001,-9.9201589729730291,-0.67785720251318748,-0.11755705364038938,-9.2485786184519529,0.20898357515764232,0.12548254727125219,-0.015614801584541815,-0.4023878662467002,0.0081312477833032637,
0.040118000000000001,-9.9201589729730291,-0.67785720251318748,-0.11755705364038938,-9.2268176184519533,0.011191575157642353,0.099882547271251454,-0.0013018015845417952,-0.40428786624670021,0.0084752477833032747,
0.040647999999999997,-9.6854547229730272,-0.5102052835131875,-0.19419767864038939,-9.2268176184519533,0.011191575157642353,0.099882547271251454,-0.0013018015845417952,-0.40428786624670021,0.0084752477833032747,
0.041537999999999999,-9.6854547229730272,-0.5102052835131875,-0.19419767864038939,-9.2064036184519527,0.069877575157642369,0.15148254727125199,-0.0047998015845417963,-0.40089786624670021,0.0084062477833032612,
0.042967999999999999,-9.6854547229730272,-0.5102052835131875,-0.19419767864038939,-9.2124536184519528,0.15984257515764233,0.097082547271250874,-0.011198801584541784,-0.39962786624670033,0.0088852477833032684,
0.044407000000000002,-9.6854547229730272,-0.5102052835131875,-0.19419767864038939,-9.2449796184519535,0.13258357515764241,0.068782547271251104,-0.0079578015845417904,-0.40633786624670032,0.0092282477833032506,
0.044585,-9.6423397729730276,-0.68264742551318758,-0.19419767864038939,-9.2449796184519535,0.13258357515764241,0.068782547271251104,-0.0079578015845417904,-0.40633786624670032,0.0092282477833032506,
0.045844000000000003,-9.6423397729730276,-0.68264742551318758,-0.19419767864038939,-9.1789746184519529,0.24199557515764236,0.072882547271252207,-0.015321801584541772,-0.39743786624670019,0.0091072477833032683,
0.047258000000000001,-9.6423397729730276,-0.68264742551318758,-0.19419767864038939,-9.1497566184519528,0.10989357515764231,0.042982547271250837,-0.0070578015845417785,-0.39679786624670021,0.0080032477833032745,
0.048544999999999998,-9.6423397729730276,-0.68264742551318758,-0.15108763364038938,-9.1497566184519528,0.10989357515764231,0.042982547271250837,-0.0070578015845417785,-0.39679786624670021,0.0080032477833032745,
0.048698999999999999,-9.6423397729730276,-0.68264742551318758,-0.15108763364038938,-9.1293316184519533,0.037668575157642326,0.083082547271251528,-0.0026648015845417983,-0.39875786624670018,0.0084122477833032672,
0.050133999999999998,-9.6423397729730276,-0.68264742551318758,-0.15108763364038938,-9.1417306184519536,0.12726357515764242,0.11208254727125144,-0.010144801584541785,-0.40106786624670021,0.0086932477833032706,
0.051588000000000002,-9.6423397729730276,-0.68264742551318758,-0.15108763364038938,-9.1579526184519526,0.055511575157642379,0.049782547271250976,-0.003083801584541801,-0.39450786624670031,0.0068532477833032623,
0.052468000000000001,-9.5968311829730286,-0.61558626551318751,-0.20856736664038941,-9.1579526184519526,0.055511575157642379,0.049782547271250976,-0.003083801584541801,-0.39450786624670031,0.0068532477833032623,
0.053017000000000002,-9.5968311829730286,-0.61558626551318751,-0.20856736664038941,-9.2081676184519523,0.1362625751576424,0.049582547271251443,-0.0095138015845417923,-0.40613786624670034,0.0070612477833032483,
0.054457999999999999,-9.5968311829730286,-0.61558626551318751,-0.20856736664038941,-9.1216866184519532,0.18361957515764238,0.080382547271252491,-0.013904801584541771,-0.39551786624670027,0.0089472477833032471,
0.055863999999999997,-9.5968311829730286,-0.61558626551318751,-0.20856736664038941,-9.085796618451953,0.05172657515764234,0.051982547271251178,-0.0045438015845418178,-0.39534786624670026,0.0086282477833032611,
0.056411000000000003,-9.6135964729730272,-0.60600680051318756,-0.20856736664038941,-9.085796618451953,0.05172657515764234,0.051982547271251178,-0.0045438015845418178,-0.39534786624670026,0.0086282477833032611,
0.057298000000000002,-9.6135964729730272,-0.60600680051318756,-0.20856736664038941,-9.0596716184519526,0.048156575157642378,0.064882547271251312,-0.0048458015845417868,-0.39323786624670021,0.0074482477833032745,
0.058751999999999999,-9.6135964729730272,-0.60600680051318756,-0.20856736664038941,-9.1613466184519528,0.052471575157642336,0.13788254727125171,-0.0041888015845418236,-0.40192786624670029,0.0093982477833032541,
0.060174999999999999,-9.6135964729730272,-0.60600680051318756,-0.20856736664038941,-9.1503246184519522,0.048292575157642403,0.045782547271251417,-0.0033948015845418067,-0.39673786624670027,0.0090662477833032551,
0.060366000000000003,-9.6135964729730272,-0.60600680051318756,-0.28281337064038936,-9.1503246184519522,0.048292575157642403,0.045782547271251417,-0.0033948015845418067,-0.39673786624670027,0.0090662477833032551,
0.061637999999999998,-9.6135964729730272,-0.60600680051318756,-0.28281337064038936,-9.2443486184519532,0.09654157515764239,0.07538254727125171,-0.0081758015845417864,-0.40489786624670021,0.0085852477833032736,
0.063083,-9.6135964729730272,-0.60600680051318756,-0.28281337064038936,-9.2338316184519531,0.091681575157642414,0.069482547271251249,-0.007147801584541813,-0.40337786624670025,0.009638247783303272,
0.064308000000000004,-9.5968311829730286,-0.71617702451318743,-0.1654573216403894,-9.2338316184519531,0.091681575157642414,0.069482547271251249,-0.007147801584541813,-0.40337786624670025,0.009638247783303272,
0.064473000000000003,-9.5968311829730286,-0.71617702451318743,-0.1654573216403894,-9.1755896184519532,0.097843575157642415,0.0897825472712519,-0.0064978015845417736,-0.39837786624670035,0.0084622477833032617,
0.065914,-9.5968311829730286,-0.71617702451318743,-0.1654573216403894,-9.1607866184519526,0.033582575157642403,0.08248254727125115,-0.0044338015845418188,-0.39835786624670022,0.0081772477833032542,
0.067343,-9.5968311829730286,-0.71617702451318743,-0.1654573216403894,-9.165224618451953,0.0052515751576422964,0.13808254727125124,-0.00079480158454181549,-0.39956786624670038,0.0090282477833032726,
0.068251999999999993,-9.6351588529730279,-0.69941271551318751,-0.1654573216403894,-9.165224618451953,0.0052515751576422964,0.13808254727125124,-0.00079480158454181549,-0.39956786624670038,0.0090282477833032726,
0.068796999999999997,-9.6351588529730279,-0.69941271551318751,-0.1654573216403894,-9.2911406184519532,0.062999575157642318,0.13008254727125212,-0.0076248015845418182,-0.40631786624670019,0.0090722477833032611,
0.070210999999999996,-9.6351588529730279,-0.69941271551318751,-0.1654573216403894,-9.2604126184519533,0.07415057515764234,0.10558254727125238,-0.005342801584541812,-0.40063786624670028,0.0081432477833032479,
0.071618000000000001,-9.6351588529730279,-0.69941271551318751,-0.1654573216403894,-9.3428666184519535,0.069772575157642347,0.10818254727125165,-0.0061508015845417874,-0.41029786624670028,0.0090642477833032531,
0.072187000000000001,-9.6351588529730279,-0.69941271551318751,-0.24449256764038937,-9.3428666184519535,0.069772575157642347,0.10818254727125165,-0.0061508015845417874,-0.41029786624670028,0.0090642477833032531,
0.073052000000000006,-9.6351588529730279,-0.69941271551318751,-0.24449256764038937,-9.3037336184519521,0.095795575157642365,0.16718254727125093,-0.0078708015845417867,-0.40303786624670024,0.0087562477833032504,
0.074493000000000004,-9.6351588529730279,-0.69941271551318751,-0.24449256764038937,-9.3249986184519535,0.011631575157642349,0.15368254727125219,-0.0029098015845417935,-0.40969786624670035,0.0084452477833032724,
0.075922000000000003,-9.6351588529730279,-0.69941271551318751,-0.24449256764038937,-9.2269676184519529,0.0081115751576423811,0.17648254727125234,-0.0015478015845418192,-0.40211786624670021,0.0089732477833032731,
0.076123999999999997,-9.7596968029730284,-0.68025182351318758,-0.20138252264038939,-9.2269676184519529,0.0081115751576423811,0.17648254727125234,-0.0015478015845418192,-0.40211786624670021,0.0089732477833032731,
0.077341999999999994,-9.7596968029730284,-0.68025182351318758,-0.20138252264038939,-9.2542046184519524,0.019910575157642385,0.1992825472712525,-0.0031228015845418122,-0.40483786624670026,0.0089992477833032714,
0.078783000000000006,-9.7596968029730284,-0.68025182351318758,-0.20138252264038939,-9.2616416184519537,0.057366575157642319,0.1367825472712525,-0.0039948015845417961,-0.40302786624670039,0.0082922477833032582,
0.080060000000000006,-9.7596968029730284,-0.78802840751318748,-0.20138252264038939,-9.2616416184519537,0.057366575157642319,0.1367825472712525,-0.0039948015845417961,-0.40302786624670039,0.0082922477833032582,
0.080221000000000001,-9.7596968029730284,-0.78802840751318748,-0.20138252264038939,-9.3617406184519538,0.091795575157642362,0.16108254727125093,-0.0080528015845418022,-0.40982786624670031,0.0091422477833032478,
0.081689999999999999,-9.7596968029730284,-0.78802840751318748,-0.20138252264038939,-9.4015556184519529,0.093418575157642403,0.16118254727125247,-0.0064398015845417711,-0.40822786624670027,0.0089302477833032579,
0.083068000000000003,-9.7596968029730284,-0.78802840751318748,-0.20138252264038939,-9.4532506184519534,0.044651575157642398,0.13168254727125195,-0.0043158015845418118,-0.41466786624670027,0.0084972477833032689,
0.084006999999999998,-9.6926356429730287,-0.78802840751318748,-0.10797660764038937,-9.4532506184519534,0.044651575157642398,0.13168254727125195,-0.0043158015845418118,-0.41466786624670027,0.0084972477833032689,
0.084542999999999993,-9.6926356429730287,-0.78802840751318748,-0.10797660764038937,-9.4488866184519527,0.033659575157642396,0.17708254727125095,-0.0046698015845417773,-0.41203786624670036,0.0085642477833032526,
0.085944000000000007,-9.6926356429730287,-0.78802840751318748,-0.10797660764038937,-9.3385616184519531,0.011751575157642469,0.14628254727125167,-0.0024518015845417795,-0.40750786624670021,0.0086002477833032609,
0.087400000000000005,-9.6926356429730287,-0.78802840751318748,-0.10797660764038937,-9.2156776184519522,0.037739575157642369,0.15928254727125157,-0.0036318015845417939,-0.40240786624670033,0.0081482477833032529,
0.087960999999999998,-9.9178045729730275,-0.66827675651318752,-0.12953212064038938,-9.2156776184519522,0.037739575157642369,0.15928254727125157,-0.0036318015845417939,-0.40240786624670033,0.0081482477833032529,
0.088803000000000007,-9.9178045729730275,-0.66827675651318752,-0.12953212064038938,-9.2394136184519535,0.12989957515764239,0.1351825472712509,-0.0088748015845417916,-0.40257786624670033,0.0082692477833032629,
0.090247999999999995,-9.9178045729730275,-0.66827675651318752,-0.12953212064038938,-9.2992686184519524,0.095641575157642378,0.10548254727125084,-0.007667801584541778,-0.40474786624670034,0.0081422477833032469,
0.091702000000000006,-9.9178045729730275,-0.66827675651318752,-0.12953212064038938,-9.3870286184519536,0.10277757515764241,0.14448254727125232,-0.0074508015845418107,-0.41005786624670026,0.0080902477833032505,
0.091869000000000006,-9.9178045729730275,-0.64672222451318762,-0.12953212064038938,-9.3870286184519536,0.10277757515764241,0.14448254727125232,-0.0074508015845418107,-0.41005786624670026,0.0080902477833032505,
0.093112,-9.9178045729730275,-0.64672222451318762,-0.12953212064038938,-9.4561146184519522,0.082769575157642383,0.17708254727125095,-0.0053838015845418252,-0.41581786624670025,0.0085402477833032564,
0.094534000000000007,-9.9178045729730275,-0.64672222451318762,-0.12953212064038938,-9.3376766184519528,0.037605575157642401,0.13808254727125124,-0.0030228015845418232,-0.40856786624670027,0.0083182477833032564,
0.095895999999999995,-9.7094009329730273,-0.64672222451318762,-0.15587687564038941,-9.3376766184519528,0.037605575157642401,0.13808254727125124,-0.0030228015845418232,-0.40856786624670027,0.0083182477833032564,
0.095971000000000001,-9.7094009329730273,-0.64672222451318762,-0.15587687564038941,-9.2386676184519523,0.056321575157642356,0.15208254727125237,-0.005574801584541822,-0.40467786624670032,0.0085362477833032524,
0.097436999999999996,-9.7094009329730273,-0.64672222451318762,-0.15587687564038941,-9.1329586184519531,0.10755257515764238,0.096682547271251806,-0.0073208015845417918,-0.39559786624670035,0.0084532477833032527,
0.098847000000000004,-9.7094009329730273,-0.64672222451318762,-0.15587687564038941,-9.1979566184519523,0.15228457515764238,0.058782547271251318,-0.0086738015845417848,-0.40184786624670021,0.0082872477833032532,
0.099877999999999995,-9.7620904429730277,-0.74252276051318755,-0.13192674164038939,-9.1979566184519523,0.15228457515764238,0.058782547271251318,-0.0086738015845417848,-0.40184786624670021,0.0082872477833032532,
0.100273,-9.7620904429730277,-0.74252276051318755,-0.13192674164038939,-9.1652196184519532,0.17835557515764233,0.019482547271252315,-0.012156801584541799,-0.39779786624670033,0.0083752477833032579,
0.10169,-9.7620904429730277,-0.74252276051318755,-0.13192674164038939,-9.3016486184519529,0.14353557515764237,-0.00096745272874798616,-0.0097438015845418002,-0.40527786624670026,0.0085502477833032664,
0.10316400000000001,-9.7620904429730277,-0.74252276051318755,-0.13192674164038939,-9.3651606184519522,0.12966857515764241,0.044682547271252204,-0.0082728015845418001,-0.41022786624670027,0.007827247783303265,
0.103781,-9.7620904429730277,-0.59882195651318748,-0.13192674164038939,-9.3651606184519522,0.12966857515764241,0.044682547271252204,-0.0082728015845418001,-0.41022786624670027,0.007827247783303265,
0.10456699999999999,-9.7620904429730277,-0.59882195651318748,-0.13192674164038939,-9.3075726184519532,0.11743457515764233,0.083082547271251528,-0.0078348015845418062,-0.40619786624670029,0.0083782477833032609,
0.10601099999999999,-9.7620904429730277,-0.59882195651318748,-0.13192674164038939,-9.2039626184519534,0.088758575157642405,0.014562547271252058,-0.0070148015845418188,-0.4036078662467002,0.0086252477833032581,
0.107447,-9.7620904429730277,-0.59882195651318748,-0.13192674164038939,-9.0597486184519536,0.14165957515764238,0.12558254727125195,-0.0092108015845417945,-0.3916778662467002,0.0083162477833032544,
0.107705,-9.7141882129730277,-0.59882195651318748,-0.33789848264038935,-9.0597486184519536,0.14165957515764238,0.12558254727125195,-0.0092108015845417945,-0.3916778662467002,0.0083162477833032544,
0.108871,-9.7141882129730277,-0.59882195651318748,-0.33789848264038935,-9.0606576184519536,0.14481257515764234,0.064982547271251079,-0.0076338015845417995,-0.39790786624670038,0.007937247783303264,
0.110301,-9.7141882129730277,-0.59882195651318748,-0.33789848264038935,-9.0135916184519527,0.16896557515764232,0.07988254727125188,-0.009832801584541806,-0.38921786624670029,0.0087722477833032664,
0.111696,-9.5704913329730275,-0.60600680051318756,-0.21096296864038941,-9.0135916184519527,0.16896557515764232,0.07988254727125188,-0.009832801584541806,-0.38921786624670029,0.0087722477833032664,
0.111719,-9.5704913329730275,-0.60600680051318756,-0.21096296864038941,-9.1334256184519536,0.13536057515764233,0.097082547271250874,-0.0067618015845418156,-0.39829786624670027,0.0085652477833032536,
0.113152,-9.5704913329730275,-0.60600680051318756,-0.21096296864038941,-9.2948296184519528,0.10755857515764233,0.03008254727125248,-0.0084218015845418104,-0.40430786624670034,0.0087182477833032679,
0.11459999999999999,-9.5704913329730275,-0.60600680051318756,-0.21096296864038941,-9.3990896184519528,0.095562575157642327,0.16228254727125169,-0.0046518015845418148,-0.4120778662467004,0.0091632477833032688,
0.115609,-9.5704913329730275,-0.64911684551318749,-0.21096296864038941,-9.3990896184519528,0.095562575157642327,0.16228254727125169,-0.0046518015845418148,-0.4120778662467004,0.0091632477833032688,
0.11602700000000001,-9.5704913329730275,-0.64911684551318749,-0.21096296864038941,-9.3612056184519528,0.12057557515764239,0.061682547271251664,-0.0088238015845418238,-0.40897786624670029,0.0090392477833032558,
0.117442,-9.5704913329730275,-0.64911684551318749,-0.21096296864038941,-9.1787776184519529,0.11478757515764237,0.075082547271252409,-0.0071678015845417775,-0.40190786624670038,0.0086832477833032606,
0.118885,-9.5704913329730275,-0.64911684551318749,-0.21096296864038941,-9.0680736184519528,0.15330657515764234,0.11118254727125176,-0.009498801584541805,-0.39285786624670038,0.0088262477833032649,
0.119542,-9.6686894329730286,-0.64911684551318749,-0.20138252264038939,-9.0680736184519528,0.15330657515764234,0.11118254727125176,-0.009498801584541805,-0.39285786624670038,0.0088262477833032649,
0.120338,-9.6686894329730286,-0.64911684551318749,-0.20138252264038939,-9.0497896184519533,0.13035757515764235,0.072182547271252062,-0.010246801584541776,-0.39430786624670033,0.0082252477833032744,
0.12178899999999999,-9.6686894329730286,-0.64911684551318749,-0.20138252264038939,-9.1267006184519524,0.1024915751576424,0.16588254727125218,-0.0053968015845418105,-0.39605786624670025,0.0086532477833032584,
0.12321,-9.6686894329730286,-0.64911684551318749,-0.20138252264038939,-9.3800966184519528,0.076465575157642407,0.10758254727125127,-0.0066828015845418198,-0.40871786624670037,0.0087142477833032639,
0.12348000000000001,-9.5034301729730277,-0.67067235851318752,-0.18222261164038939,-9.3800966184519528,0.076465575157642407,0.10758254727125127,-0.0066828015845418198,-0.40871786624670037,0.0087142477833032639,
0.124612,-9.5034301729730277,-0.67067235851318752,-0.18222261164038939,-9.5506586184519531,0.047444575157642332,0.16348254727125244,-0.0037008015845417797,-0.41630786624670035,0.0088722477833032554,
0.12604899999999999,-9.5034301729730277,-0.67067235851318752,-0.18222261164038939,-9.6773986184519529,0.078067575157642399,0.1414825472712522,-0.0062358015845417891,-0.42317786624670028,0.0090372477833032538,
0.127443,-9.5034301729730277,-0.63235155551318756,-0.18222261164038939,-9.6773986184519529,0.078067575157642399,0.1414825472712522,-0.0062358015845417891,-0.42317786624670028,0.0090372477833032538,
0.12749199999999999,-9.5034301729730277,-0.63235155551318756,-0.18222261164038939,-9.7525056184519521,0.083811575157642371,0.17208254727125194,-0.0056138015845417777,-0.42965786624670033,0.0084272477833032544,
0.12892500000000001,-9.5034301729730277,-0.63235155551318756,-0.18222261164038939,-9.6257846184519522,0.085378575157642356,0.1627825472712523,-0.0068778015845418206,-0.42265786624670021,0.0083572477833032677,
0.13034499999999999,-9.5034301729730277,-0.63235155551318756,-0.18222261164038939,-9.4279506184519537,0.0694925751576424,0.17738254727125202,-0.0049248015845417825,-0.41194786624670021,0.0089422477833032699,
0.131354,-10.042293472973027,-0.63235155551318756,-0.16306270064038941,-9.4279506184519537,0.0694925751576424,0.17738254727125202,-0.0049248015845417825,-0.41194786624670021,0.0089422477833032699,
0.13178000000000001,-10.042293472973027,-0.63235155551318756,-0.16306270064038941,-9.3730636184519529,0.053047575157642357,0.21278254727125123,-0.0049818015845418118,-0.40636786624670029,0.0077882477833032537,
0.133217,-10.042293472973027,-0.63235155551318756,-0.16306270064038941,-9.5099276184519521,0.013441575157642438,0.23088254727125168,-0.0021788015845418118,-0.41408786624670024,0.0081362477833032687,
0.134633,-10.042293472973027,-0.63235155551318756,-0.16306270064038941,-9.7198036184519534,0.044386575157642327,0.22488254727125145,-0.0048088015845417775,-0.42669786624670025,0.0082152477833032644,
0.135295,-9.8555110729730284,-0.72575747051318751,-0.064866562640389369,-9.7198036184519534,0.044386575157642327,0.22488254727125145,-0.0048088015845417775,-0.42669786624670025,0.0082152477833032644,
0.13606499999999999,-9.8555110729730284,-0.72575747051318751,-0.064866562640389369,-9.8684436184519537,0.093357575157642314,0.22628254727125174,-0.0066478015845418126,-0.43410786624670039,0.0085552477833032714,
0.13750699999999999,-9.8555110729730284,-0.72575747051318751,-0.064866562640389369,-9.8966126184519538,0.085222575157642311,0.17218254727125171,-0.007155801584541821,-0.43629786624670031,0.0078432477833032532,
0.13894500000000001,-9.8555110729730284,-0.72575747051318751,-0.064866562640389369,-9.7499346184519524,0.090568575157642384,0.21668254727125102,-0.0072898015845417885,-0.4311978662467002,0.007931247783303258,
0.139205,-9.8555110729730284,-0.69701711351318751,-0.064866562640389369,-9.7499346184519524,0.090568575157642384,0.21668254727125102,-0.0072898015845417885,-0.4311978662467002,0.007931247783303258,
0.140373,-9.8555110729730284,-0.69701711351318751,-0.064866562640389369,-9.4733036184519523,0.064567575157642332,0.20748254727125115,-0.0053578015845417992,-0.41266786624670027,0.0086142477833032471,
0.14182800000000001,-9.8555110729730284,-0.69701711351318751,-0.064866562640389369,-9.4064666184519528,0.037874575157642365,0.23698254727125168,-0.005110801584541802,-0.40898786624670036,0.0083512477833032617,
0.14313699999999999,-10.432731472973028,-0.69701711351318751,-0.084026669840389367,-9.4064666184519528,0.037874575157642365,0.23698254727125168,-0.005110801584541802,-0.40898786624670036,0.0083512477833032617,
0.14326800000000001,-10.432731472973028,-0.69701711351318751,-0.084026669840389367,-9.5057096184519523,0.016161575157642272,0.24568254727125094,-0.0025928015845417818,-0.41058786624670018,0.0081772477833032542,
0.144673,-10.432731472973028,-0.69701711351318751,-0.084026669840389367,-9.8143106184519535,0.038366575157642413,0.27278254727125173,-0.002757801584541808,-0.43128786624670035,0.0087152477833032649,
0.14611199999999999,-10.432731472973028,-0.69701711351318751,-0.084026669840389367,-9.9812326184519531,0.068033575157642412,0.22768254727125203,-0.0065728015845418208,-0.4399578662467003,0.0086112477833032719,
0.14707700000000001,-9.9896137729730281,-0.73773253751318757,-0.055286410940389379,-9.9812326184519531,0.068033575157642412,0.22768254727125203,-0.0065728015845418208,-0.4399578662467003,0.0086112477833032719,
0.14754400000000001,-9.9896137729730281,-0.73773253751318757,-0.055286410940389379,-10.076428618451953,0.060589575157642406,0.25888254727125215,-0.0071838015845417935,-0.44501786624670037,0.0085582477833032744,
0.14896699999999999,-9.9896137729730281,-0.73773253751318757,-0.055286410940389379,-9.8895386184519527,0.064000575157642348,0.2429825472712519,-0.0060838015845418036,-0.43939786624670019,0.0089452477833032729,
0.15040500000000001,-9.9896137729730281,-0.73773253751318757,-0.055286410940389379,-9.5347396184519528,0.023080575157642391,0.27788254727125228,-0.0031198015845417815,-0.41341786624670029,0.0091392477833032726,
0.15096000000000001,-9.9896137729730281,-0.73773253751318757,-0.055286410940389379,-9.5347396184519528,0.023080575157642391,0.27788254727125228,-0.0031198015845417815,-0.41341786624670029,0.0091392477833032726,
0.15184,-9.9896137729730281,-0.73773253751318757,-0.055286410940389379,-9.3809296184519528,-5.8424842357629458e-05,0.24538254727125164,-0.0016398015845418001,-0.40901786624670033,0.0083402477833032507,
0.15325900000000001,-9.9896137729730281,-0.73773253751318757,-0.055286410940389379,-9.3357926184519524,0.013541575157642427,0.22178254727125157,-0.0019898015845418171,-0.39967786624670021,0.0086142477833032471,
0.154691,-9.9896137729730281,-0.73773253751318757,-0.055286410940389379,-9.7877736184519524,0.070286575157642361,0.18088254727125097,-0.0044058015845417908,-0.42973786624670018,0.0088652477833032484,
0.154888,-10.40398817297303,-0.74970760451318752,-0.028941263540389377,-9.7877736184519524,0.070286575157642361,0.18088254727125097,-0.0044058015845417908,-0.42973786624670018,0.0088652477833032484,
0.15612400000000001,-10.40398817297303,-0.74970760451318752,-0.028941263540389377,-9.972215618451953,0.12363857515764232,0.12778254727125216,-0.007693801584541804,-0.4373478662467003,0.0085152477833032592,
0.15756500000000001,-10.40398817297303,-0.74970760451318752,-0.028941263540389377,-10.133688618451952,0.11406157515764237,0.16898254727125206,-0.0086678015845417788,-0.45048786624670023,0.0092582477833032528,
0.158804,-10.224367072973028,-0.68743764851318756,-0.028941263540389377,-10.133688618451952,0.11406157515764237,0.16898254727125206,-0.0086678015845417788,-0.45048786624670023,0.0092582477833032528,
0.15898599999999999,-10.224367072973028,-0.68743764851318756,-0.028941263540389377,-9.904854618451953,0.088270575157642361,0.14248254727125165,-0.007329801584541773,-0.43835786624670026,0.0081962477833032732,
0.16042200000000001,-10.224367072973028,-0.68743764851318756,-0.028941263540389377,-9.5158146184519534,0.056507575157642376,0.14678254727125228,-0.0049668015845418245,-0.4126578662467002,0.0084552477833032547,
0.161858,-10.224367072973028,-0.68743764851318756,-0.028941263540389377,-9.2403716184519524,0.039946575157642328,0.14418254727125124,-0.0040128015845418141,-0.40337786624670025,0.0081452477833032499,
0.16272900000000001,-10.224367072973028,-0.68743764851318756,-0.15348225464038939,-9.2403716184519524,0.039946575157642328,0.14418254727125124,-0.0040128015845418141,-0.40337786624670025,0.0081452477833032499,
0.163304,-10.224367072973028,-0.68743764851318756,-0.15348225464038939,-9.0557826184519534,0.099733575157642362,0.15618254727125169,-0.0057608015845417859,-0.38611786624670019,0.0081312477833032637,
0.16475100000000001,-10.224367072973028,-0.68743764851318756,-0.15348225464038939,-9.4627796184519521,0.15123057515764238,0.14548254727125176,-0.0076398015845418055,-0.41149786624670037,0.0085462477833032624,
0.166158,-10.224367072973028,-0.68743764851318756,-0.15348225464038939,-9.7757646184519533,0.19978057515764236,0.16318254727125137,-0.011448801584541812,-0.42935786624670036,0.0087012477833032509,
0.16666300000000001,-9.8890612729730272,-0.68983226951318755,-0.12713651864038938,-9.7757646184519533,0.19978057515764236,0.16318254727125137,-0.011448801584541812,-0.42935786624670036,0.0087012477833032509,
0.16758100000000001,-9.8890612729730272,-0.68983226951318755,-0.12713651864038938,-9.9397116184519536,0.15213157515764242,0.15798254727125105,-0.010248801584541778,-0.43939786624670019,0.0087632477833032574,
0.169049,-9.8890612729730272,-0.68983226951318755,-0.12713651864038938,-9.7597416184519528,0.084186575157642385,0.15728254727125091,-0.0062578015845418111,-0.43349786624670039,0.0085172477833032612,
0.17044300000000001,-9.8890612729730272,-0.68983226951318755,-0.12713651864038938,-9.3205726184519531,0.074993575157642378,0.167482547271252,-0.0074358015845418235,-0.40547786624670024,0.0086192477833032521,
0.17056199999999999,-10.346501572973027,-0.5916361315131875,-0.12713651864038938,-9.3205726184519531,0.074993575157642378,0.167482547271252,-0.0074358015845418235,-0.40547786624670024,0.0086192477833032521,
0.171898,-10.346501572973027,-0.5916361315131875,-0.12713651864038938,-9.1417896184519538,0.11652357515764233,0.10338254727125218,-0.0060978015845418176,-0.39868786624670038,0.0075212477833032643,
0.173314,-10.346501572973027,-0.5916361315131875,-0.12713651864038938,-8.9519606184519525,0.15150257515764232,0.069782547271252326,-0.0085978015845418199,-0.38296786624670021,0.0075692477833032568,
0.17449000000000001,-10.346501572973027,-0.5916361315131875,-0.22054243364038939,-8.9519606184519525,0.15150257515764232,0.069782547271252326,-0.0085978015845418199,-0.38296786624670021,0.0075692477833032568,
0.17476800000000001,-10.346501572973027,-0.5916361315131875,-0.22054243364038939,-9.2158366184519522,0.25697457515764233,0.10268254727125203,-0.015746801584541781,-0.39865786624670019,0.0086352477833032681,
0.176204,-10.346501572973027,-0.5916361315131875,-0.22054243364038939,-9.5854146184519529,0.16771257515764237,0.1071825472712522,-0.0092538015845418098,-0.42082786624670021,0.0077462477833032672,
0.17762600000000001,-10.346501572973027,-0.5916361315131875,-0.22054243364038939,-9.7215476184519538,0.12767457515764236,0.12508254727125134,-0.007117801584541783,-0.42816786624670033,0.0080952477833032555,
0.17843000000000001,-9.4076257129730276,-0.53655101951318751,-0.21814781264038938,-9.7215476184519538,0.12767457515764236,0.12508254727125134,-0.007117801584541783,-0.42816786624670033,0.0080952477833032555,
0.17904500000000001,-9.4076257129730276,-0.53655101951318751,-0.21814781264038938,-9.562362618451953,0.1513315751576424,0.23808254727125089,-0.010554801584541806,-0.42625786624670026,0.0086132477833032739,
0.18048800000000001,-9.4076257129730276,-0.53655101951318751,-0.21814781264038938,-9.1208356184519523,0.036433575157642339,0.12808254727125146,-0.0031288015845418182,-0.39427786624670036,0.0083582477833032687,
0.181924,-9.4076257129730276,-0.53655101951318751,-0.21814781264038938,-8.9514086184519535,0.10711057515764233,0.1716825472712511,-0.0049268015845417845,-0.38915786624670035,0.0084252477833032524,
0.18237800000000001,-9.424391002973028,-0.64432662251318762,-0.21814781264038938,-8.9514086184519535,0.10711057515764233,0.1716825472712511,-0.0049268015845417845,-0.38915786624670035,0.0084252477833032524,
0.183339,-9.424391002973028,-0.64432662251318762,-0.21814781264038938,-8.7442126184519537,0.19209957515764231,0.17288254727125185,-0.014548801584541804,-0.37427786624670034,0.0075582477833032735,
0.184779,-9.424391002973028,-0.64432662251318762,-0.21814781264038938,-9.1642716184519522,0.048153575157642403,0.11298254727125112,-0.0018298015845418236,-0.39468786624670038,0.0081162477833032487,
0.18621499999999999,-9.424391002973028,-0.64432662251318762,-0.21814781264038938,-9.5415216184519522,0.093863575157642321,0.14718254727125135,-0.0075548015845418037,-0.41998786624670026,0.0086802477833032576,
0.186308,-10.037486572973028,-0.64432662251318762,-0.16306270064038941,-9.5415216184519522,0.093863575157642321,0.14718254727125135,-0.0075548015845418037,-0.41998786624670026,0.0086802477833032576,
0.18765899999999999,-10.037486572973028,-0.64432662251318762,-0.16306270064038941,-9.7447036184519522,0.093839575157642408,0.20198254727125153,-0.0090228015845417731,-0.42794786624670023,0.0087272477833032491,
0.18906700000000001,-10.037486572973028,-0.64432662251318762,-0.16306270064038941,-9.7869826184519528,0.0095815751576424635,0.098482547271251164,-0.00030180158454179429,-0.43781786624670027,0.0084472477833032744,
0.19031300000000001,-9.6279681229730283,-0.68743764851318756,-0.096001834940389386,-9.7869826184519528,0.0095815751576424635,0.098482547271251164,-0.00030180158454179429,-0.43781786624670027,0.0084472477833032744,
0.19050300000000001,-9.6279681229730283,-0.68743764851318756,-0.096001834940389386,-9.3333726184519534,0.090322575157642415,0.12938254727125198,-0.007681801584541792,-0.40356786624670038,0.0087372477833032591,
0.19193099999999999,-9.6279681229730283,-0.68743764851318756,-0.096001834940389386,-9.2194346184519524,0.11344757515764237,0.089482547271250823,-0.0077858015845417849,-0.40356786624670038,0.0080622477833032502,
0.19340399999999999,-9.6279681229730283,-0.68743764851318756,-0.096001834940389386,-9.0923956184519525,0.089750575157642398,0.1030825472712511,-0.0062758015845417736,-0.39047786624670033,0.007937247783303264,
0.19430500000000001,-9.2160266029730273,-0.66827675651318752,-0.096001834940389386,-9.0923956184519525,0.089750575157642398,0.1030825472712511,-0.0062758015845417736,-0.39047786624670033,0.007937247783303264,
0.19481499999999999,-9.2160266029730273,-0.66827675651318752,-0.096001834940389386,-9.389743618451952,0.12752757515764235,0.17528254727125159,-0.0093448015845418175,-0.40825786624670024,0.0087992477833032656,
0.19623199999999999,-9.2160266029730273,-0.66827675651318752,-0.096001834940389386,-9.6373716184519527,0.028645575157642322,0.16478254727125119,-0.00050180158454177226,-0.42250786624670034,0.0085092477833032532,
0.19766600000000001,-9.2160266029730273,-0.66827675651318752,-0.096001834940389386,-9.7265716184519526,0.080612575157642419,0.20918254727125252,-0.0061248015845418169,-0.42792786624670032,0.0080622477833032502,
0.19822400000000001,-9.829122172973026,-0.66827675651318752,-0.24928279064038938,-9.7265716184519526,0.080612575157642419,0.20918254727125252,-0.0061248015845418169,-0.42792786624670032,0.0080622477833032502,
0.199105,-9.829122172973026,-0.66827675651318752,-0.24928279064038938,-9.6677056184519525,0.050667575157642419,0.18728254727125204,-0.0063478015845417901,-0.42895786624670018,0.0087662477833032604,
0.20053099999999999,-9.829122172973026,-0.66827675651318752,-0.24928279064038938,-9.283927618451953,0.0070315751576424113,0.08558254727125103,0.0002631984154581879,-0.40145786624670032,0.0088012477833032676,
0.20197999999999999,-9.829122172973026,-0.66827675651318752,-0.24928279064038938,-9.2436406184519537,0.12898357515764236,0.13628254727125189,-0.0090968015845417916,-0.40366786624670037,0.0089252477833032529,
0.202152,-10.133330272973028,-0.70659755951318759,-0.10318736564038937,-9.2436406184519537,0.12898357515764236,0.13628254727125189,-0.0090968015845417916,-0.40366786624670037,0.0089252477833032529,
0.203403,-10.133330272973028,-0.70659755951318759,-0.10318736564038937,-9.233525618451953,0.1124525751576424,0.097382547271251951,-0.007563801584541785,-0.39667786624670032,0.0085362477833032524,
0.20486199999999999,-10.133330272973028,-0.70659755951318759,-0.10318736564038937,-9.6183346184519536,0.024541575157642326,0.16568254727125087,-0.0027748015845417973,-0.42346786624670019,0.0094062477833032621,
0.20608000000000001,-10.255464772973028,-0.62516671151318759,-0.10318736564038937,-9.6183346184519536,0.024541575157642326,0.16568254727125087,-0.0027748015845417973,-0.42346786624670019,0.0094062477833032621,
0.206291,-10.255464772973028,-0.62516671151318759,-0.10318736564038937,-9.7809216184519521,0.076763575157642316,0.17968254727125199,-0.0065398015845418156,-0.42904786624670033,0.0084652477833032647,
0.207701,-10.255464772973028,-0.62516671151318759,-0.10318736564038937,-9.8661516184519531,0.022677575157642349,0.22868254727125148,-0.0011158015845417757,-0.43674786624670037,0.0089342477833032619,
0.20913899999999999,-10.255464772973028,-0.62516671151318759,-0.10318736564038937,-9.6198206184519535,0.042518575157642347,0.14068254727125229,-0.0045438015845418178,-0.42383786624670039,0.0083192477833032574,
0.21001700000000001,-9.6423397729730276,-0.62516671151318759,-0.11755705364038938,-9.6198206184519535,0.042518575157642347,0.14068254727125229,-0.0045438015845418178,-0.42383786624670039,0.0083192477833032574,
0.210563,-9.6423397729730276,-0.62516671151318759,-0.11755705364038938,-9.303739618451953,0.081337575157642394,0.15198254727125082,-0.0078268015845417982,-0.40314786624670029,0.0087382477833032601,
0.21199200000000001,-9.6423397729730276,-0.62516671151318759,-0.11755705364038938,-9.2009806184519523,0.061456575157642357,0.12128254727125132,-0.005570801584541818,-0.40386786624670035,0.0084742477833032737,
0.21343899999999999,-9.6423397729730276,-0.62516671151318759,-0.11755705364038938,-9.1527716184519523,0.12607357515764239,0.23338254727125118,-0.0085918015845418139,-0.39269786624670022,0.0086432477833032484,
0.213951,-10.181203072973029,-0.71857262651318743,-0.1462974106403894,-9.1527716184519523,0.12607357515764239,0.23338254727125118,-0.0085918015845418139,-0.39269786624670022,0.0086432477833032484,
0.21487800000000001,-10.181203072973029,-0.71857262651318743,-0.1462974106403894,-9.5159256184519521,0.0079315751576423121,0.23818254727125243,-0.0037748015845417981,-0.41716786624670021,0.0079902477833032615,
0.21629000000000001,-10.181203072973029,-0.71857262651318743,-0.1462974106403894,-9.5952406184519532,-0.046238424842357739,0.23938254727125141,-0.00013580158454179481,-0.41884786624670034,0.0076572477833032615,
0.21777099999999999,-10.181203072973029,-0.71857262651318743,-0.1462974106403894,-9.5918896184519529,0.029776575157642315,0.30118254727125127,-0.0029468015845418027,-0.42491786624670036,0.0085952477833032559,
0.21788099999999999,-9.9129976729730274,-0.73533791651318747,-0.1462974106403894,-9.5918896184519529,0.029776575157642315,0.30118254727125127,-0.0029468015845418027,-0.42491786624670036,0.0085952477833032559,
0.21917700000000001,-9.9129976729730274,-0.73533791651318747,-0.1462974106403894,-9.3146726184519526,0.0083215751576424246,0.20778254727125223,-0.0016368015845418249,-0.40576786624670036,0.0090572477833032738,
0.220586,-9.9129976729730274,-0.73533791651318747,-0.1462974106403894,-9.1017456184519521,0.047487575157642348,0.12778254727125216,-0.0050018015845417763,-0.39564786624670023,0.0084592477833032587,
0.22181799999999999,-9.9129976729730274,-0.73533791651318747,0.0021940087596106243,-9.1017456184519521,0.047487575157642348,0.12778254727125216,-0.0050018015845417763,-0.39564786624670023,0.0084592477833032587,
0.222025,-9.9129976729730274,-0.73533791651318747,0.0021940087596106243,-9.0129166184519534,0.11481457515764237,0.17838254727125147,-0.009812801584541786,-0.38926786624670018,0.0083502477833032607,
0.223464,-9.9129976729730274,-0.73533791651318747,0.0021940087596106243,-9.1389836184519524,0.070325575157642373,0.18758254727125134,-0.0051078015845417712,-0.39548786624670029,0.0077692477833032625,
0.22489799999999999,-9.9129976729730274,-0.73533791651318747,0.0021940087596106243,-9.4492096184519525,0.072244575157642377,0.20818254727125129,-0.0041938015845418009,-0.41563786624670018,0.0088342477833032729,
0.22577,-9.484271242973028,-0.74252276051318755,-0.11037220964038937,-9.4492096184519525,0.072244575157642377,0.20818254727125129,-0.0041938015845418009,-0.41563786624670018,0.0088342477833032729,
0.22634299999999999,-9.484271242973028,-0.74252276051318755,-0.11037220964038937,-9.5624126184519529,0.047337575157642364,0.20028254727125194,-0.0036808015845418152,-0.41793786624670037,0.0079862477833032575,
0.22777600000000001,-9.484271242973028,-0.74252276051318755,-0.11037220964038937,-9.5327876184519535,0.07396457515764232,0.19398254727125241,-0.0038348015845418026,-0.42238786624670022,0.0087082477833032579,
0.229215,-9.484271242973028,-0.74252276051318755,-0.11037220964038937,-9.2623946184519532,0.16088157515764234,0.10428254727125186,-0.010894801584541813,-0.40296786624670022,0.0082522477833032737,
0.22971,-9.484271242973028,-0.64911684551318749,-0.11037220964038937,-9.2623946184519532,0.16088157515764234,0.10428254727125186,-0.010894801584541813,-0.40296786624670022,0.0082522477833032737,
0.23060700000000001,-9.484271242973028,-0.64911684551318749,-0.11037220964038937,-9.1074326184519521,0.13479657515764232,0.14198254727125104,-0.0076808015845418187,-0.39478786624670037,0.0084862477833032579,
0.23206399999999999,-9.484271242973028,-0.64911684551318749,-0.11037220964038937,-9.0213136184519538,0.14694757515764234,0.071082547271251073,-0.0096498015845418172,-0.39086786624670022,0.00783224778330327,
0.23350199999999999,-9.484271242973028,-0.64911684551318749,-0.11037220964038937,-9.1646466184519522,0.16394557515764241,0.1738825472712513,-0.0094428015845418045,-0.39691786624670033,0.0094782477833032508,
0.23360500000000001,-10.063875472973027,-0.64911684551318749,-0.045706357340389379,-9.1646466184519522,0.16394557515764241,0.1738825472712513,-0.0094428015845418045,-0.39691786624670033,0.0094782477833032508,
0.23491200000000001,-10.063875472973027,-0.64911684551318749,-0.045706357340389379,-9.4451136184519537,0.06643157515764242,0.093982547271250994,-0.0047308015845418105,-0.41263786624670029,0.0089932477833032654,
0.23633299999999999,-10.063875472973027,-0.64911684551318749,-0.045706357340389379,-9.556160618451953,0.088753575157642373,0.12378254727125082,-0.0058428015845418124,-0.41754786624670026,0.0081622477833032669,
0.23754700000000001,-9.5776722529730272,-0.60600680051318756,-0.1870128346403894,-9.556160618451953,0.088753575157642373,0.12378254727125082,-0.0058428015845418124,-0.41754786624670026,0.0081622477833032669,
0.23777799999999999,-9.5776722529730272,-0.60600680051318756,-0.1870128346403894,-9.4694316184519529,0.15308557515764232,0.10128254727125174,-0.0091498015845418168,-0.41635786624670024,0.0093852477833032688,
0.23921700000000001,-9.5776722529730272,-0.60600680051318756,-0.1870128346403894,-9.2191386184519537,0.17066857515764233,0.051482547271252344,-0.0086438015845418104,-0.40224786624670039,0.0084272477833032544,
0.24065700000000001,-9.5776722529730272,-0.60600680051318756,-0.1870128346403894,-9.0513876184519528,0.20924257515764233,-0.0046174527287483613,-0.013268801584541801,-0.39234786624670037,0.0085532477833032694,
0.24150199999999999,-9.5776722529730272,-0.61079702351318754,-0.1870128346403894,-9.0513876184519528,0.20924257515764233,-0.0046174527287483613,-0.013268801584541801,-0.39234786624670037,0.0085532477833032694,
0.24207100000000001,-9.5776722529730272,-0.61079702351318754,-0.1870128346403894,-9.0847886184519524,0.17821857515764239,0.056782547271252426,-0.0094058015845417953,-0.39256786624670026,0.0081252477833032577,
0.243501,-9.5776722529730272,-0.61079702351318754,-0.1870128346403894,-9.3064916184519522,0.13635257515764232,0.0068525472712508417,-0.0091618015845417733,-0.40534786624670027,0.0085632477833032516,
0.24493200000000001,-9.5776722529730272,-0.61079702351318754,-0.1870128346403894,-9.5085786184519527,0.12511457515764235,0.05558254727125167,-0.0081228015845418167,-0.41433786624670033,0.0091242477833032576,
0.24543300000000001,-9.7836430129730285,-0.61079702351318754,-0.2325175006403894,-9.5085786184519527,0.12511457515764235,0.05558254727125167,-0.0081228015845418167,-0.41433786624670033,0.0091242477833032576,
0.24640799999999999,-9.7836430129730285,-0.61079702351318754,-0.2325175006403894,-9.5376866184519535,0.07350857515764242,0.040982547271251946,-0.0036418015845418039,-0.4194178662467003,0.0083052477833032712,
0.247835,-9.7836430129730285,-0.61079702351318754,-0.2325175006403894,-9.4649686184519535,0.13820157515764231,0.00037254727125102249,-0.009136801584541776,-0.41398786624670025,0.0082342477833032557,
0.24923200000000001,-9.7836430129730285,-0.61079702351318754,-0.2325175006403894,-9.2982156184519535,0.19288857515764235,0.03718254727125192,-0.013106801584541805,-0.4056078662467002,0.0092432477833032656,
0.24937500000000001,-9.9608704729730277,-0.67785720251318748,-0.28281337064038936,-9.2982156184519535,0.19288857515764235,0.03718254727125192,-0.013106801584541805,-0.4056078662467002,0.0092432477833032656,
0.25067299999999998,-9.9608704729730277,-0.67785720251318748,-0.28281337064038936,-9.1510646184519526,0.086345575157642407,0.015882547271251823,-0.0027158015845418215,-0.39970786624670018,0.0092752477833032698,
0.25210100000000002,-9.9608704729730277,-0.67785720251318748,-0.28281337064038936,-9.1219156184519523,0.087348575157642383,-0.0021974527287476064,-0.010016801584541823,-0.39478786624670037,0.0088642477833032474,
0.25332399999999999,-9.9608704729730277,-0.6754625815131875,-0.28281337064038936,-9.1219156184519523,0.087348575157642383,-0.0021974527287476064,-0.010016801584541823,-0.39478786624670037,0.0088642477833032474,
0.25352400000000003,-9.9608704729730277,-0.6754625815131875,-0.28281337064038936,-9.3757196184519529,0.00019157515764245403,0.099982547271251221,0.00074919841545822985,-0.40518786624670033,0.0076822477833032587,
0.25495400000000001,-9.9608704729730277,-0.6754625815131875,-0.28281337064038936,-9.6565726184519534,0.035222575157642377,-0.019477452728748901,-0.0052658015845418182,-0.42604786624670021,0.0078942477833032487,
0.25642100000000001,-9.9608704729730277,-0.6754625815131875,-0.28281337064038936,-9.8416256184519533,0.023832575157642366,0.05278254727125109,-0.0016108015845417989,-0.42994786624670023,0.0089062477833032616,
0.257276,-9.6112028329730279,-0.6754625815131875,-0.29718305864038935,-9.8416256184519533,0.023832575157642366,0.05278254727125109,-0.0016108015845417989,-0.42994786624670023,0.0089062477833032616,
0.25787900000000002,-9.6112028329730279,-0.6754625815131875,-0.29718305864038935,-10.019427618451953,0.13040757515764234,-0.092687452728748454,-0.010661801584541775,-0.44031786624670022,0.0086842477833032616,
0.25927899999999998,-9.6112028329730279,-0.6754625815131875,-0.29718305864038935,-10.117488618451953,0.16391857515764241,-0.055147452728748547,-0.012315801584541819,-0.44475786624670022,0.0081172477833032497,
0.26069599999999998,-9.6112028329730279,-0.6754625815131875,-0.29718305864038935,-10.002408618451954,0.083237575157642407,0.00014254727125084798,-0.0070548015845418033,-0.44086786624670027,0.0090322477833032488,
0.261243,-10.427924572973028,-0.73533791651318747,-0.32352879464038942,-10.002408618451954,0.083237575157642407,0.00014254727125084798,-0.0070548015845418033,-0.44086786624670027,0.0090322477833032488,
0.262125,-10.427924572973028,-0.73533791651318747,-0.32352879464038942,-9.7478806184519531,0.069845575157642337,-0.057837452728747962,-0.0067138015845418231,-0.42359786624670037,0.00782224778330326,
0.26359199999999999,-10.427924572973028,-0.73533791651318747,-0.32352879464038942,-9.7757786184519535,0.063543575157642418,0.080782547271251559,-0.0040838015845418019,-0.42632786624670027,0.0082452477833032667,
0.26504,-10.427924572973028,-0.73533791651318747,-0.32352879464038942,-10.002713618451953,0.041575575157642319,0.07538254727125171,-0.0027088015845417868,-0.43754786624670028,0.0079592477833032582,
0.26522000000000001,-10.427924572973028,-0.73054769351318749,-0.32352879464038942,-10.002713618451953,0.041575575157642319,0.07538254727125171,-0.0027088015845417868,-0.43754786624670028,0.0079592477833032582,
0.26643,-10.427924572973028,-0.73054769351318749,-0.32352879464038942,-10.159908618451952,0.082423575157642315,0.09118254727125219,-0.007491801584541824,-0.4477378662467002,0.008032247783303248,
0.26786300000000002,-10.427924572973028,-0.73054769351318749,-0.32352879464038942,-10.138468618451952,0.084980575157642346,0.14458254727125208,-0.0083638015845418079,-0.4446878662467002,0.0084912477833032629,
0.26909699999999998,-10.267432972973028,-0.73054769351318749,-0.32831901764038934,-10.138468618451952,0.084980575157642346,0.14458254727125208,-0.0083638015845418079,-0.4446878662467002,0.0084912477833032629,
0.26929599999999998,-10.267432972973028,-0.73054769351318749,-0.32831901764038934,-9.8892206184519527,0.090363575157642373,0.14278254727125095,-0.0066668015845418038,-0.43664786624670038,0.0084612477833032607,
0.27073000000000003,-10.267432972973028,-0.73054769351318749,-0.32831901764038934,-9.6847976184519524,0.025921575157642374,0.19458254727125102,-0.0028868015845417982,-0.42279786624670024,0.0083162477833032544,
0.27215800000000001,-10.267432972973028,-0.73054769351318749,-0.32831901764038934,-9.5498496184519528,-0.010418424842357554,0.11708254727125222,-0.00022880158454180455,-0.41512786624670039,0.0077772477833032705,
0.273036,-10.550059072973028,-0.70899218051318758,-0.12234727664038939,-9.5498496184519528,-0.010418424842357554,0.11708254727125222,-0.00022880158454180455,-0.41512786624670039,0.0077772477833032705,
0.273586,-10.550059072973028,-0.70899218051318758,-0.12234727664038939,-9.5898966184519523,0.071645575157642361,0.17068254727125165,-0.0064368015845417959,-0.41482786624670021,0.0090572477833032738,
0.27503100000000003,-10.550059072973028,-0.70899218051318758,-0.12234727664038939,-9.9378296184519535,0.040413575157642323,0.12858254727125207,-0.0045638015845417823,-0.43652786624670026,0.0084922477833032639,
0.27646300000000001,-10.550059072973028,-0.70899218051318758,-0.12234727664038939,-10.126128618451952,0.11069757515764234,0.12248254727125207,-0.0080698015845417914,-0.44791786624670027,0.0088262477833032649,
0.27696300000000001,-10.550059072973028,-0.66348751451318755,-0.12234727664038939,-10.126128618451952,0.11069757515764234,0.12248254727125207,-0.0080698015845417914,-0.44791786624670027,0.0088262477833032649,
0.27787099999999998,-10.550059072973028,-0.66348751451318755,-0.12234727664038939,-10.132558618451952,0.14548657515764241,0.19658254727125168,-0.013355801584541804,-0.4460578662467003,0.0085272477833032712,
0.27930899999999997,-10.550059072973028,-0.66348751451318755,-0.12234727664038939,-9.8084096184519538,0.01764157515764242,0.20338254727125182,-0.0039078015845417924,-0.43207786624670019,0.0082292477833032507,
0.280781,-10.550059072973028,-0.66348751451318755,-0.12234727664038939,-9.5332106184519532,-0.020018424842357607,0.24008254727125156,-0.00012480158454181156,-0.4161978662467003,0.0085482477833032644,
0.28088999999999997,-10.281853672973028,-0.66348751451318755,-0.17024754464038938,-9.5332106184519532,-0.020018424842357607,0.24008254727125156,-0.00012480158454181156,-0.4161978662467003,0.0085482477833032644,
0.28220899999999999,-10.281853672973028,-0.66348751451318755,-0.17024754464038938,-9.4766416184519535,-0.014488424842357572,0.23808254727125089,-0.0019018015845417846,-0.41229786624670028,0.0079962477833032675,
0.28360800000000003,-10.281853672973028,-0.66348751451318755,-0.17024754464038938,-9.4166976184519537,-0.025588424842357682,0.20118254727125162,-0.001028801584541772,-0.40323786624670022,0.0092962477833032631,
0.28480899999999998,-10.001581972973028,-0.68983226951318755,-0.57979542464038947,-9.4166976184519537,-0.025588424842357682,0.20118254727125162,-0.001028801584541772,-0.40323786624670022,0.0092962477833032631,
0.28504099999999999,-10.001581972973028,-0.68983226951318755,-0.57979542464038947,-9.8877066184519524,0.016971575157642471,0.24988254727125181,-0.0040168015845418181,-0.43531786624670032,0.0083262477833032644,
0.28653699999999999,-10.001581972973028,-0.68983226951318755,-0.57979542464038947,-10.044813618451952,0.064979575157642411,0.15158254727125176,-0.0058748015845417889,-0.44135786624670037,0.0081792477833032562,
0.28796699999999997,-10.001581972973028,-0.68983226951318755,-0.57979542464038947,-10.255078618451954,0.064348575157642363,0.21688254727125234,-0.0049078015845417933,-0.45470786624670034,0.0093902477833032738,
0.28871200000000002,-10.001581972973028,-0.68983226951318755,0.033329281059610624,-10.255078618451954,0.064348575157642363,0.21688254727125234,-0.0049078015845417933,-0.45470786624670034,0.0093902477833032738,
0.28936499999999998,-10.001581972973028,-0.68983226951318755,0.033329281059610624,-10.098308618451952,0.045326575157642379,0.15248254727125143,-0.0058108015845417804,-0.4494478662467003,0.0080302477833032737,
0.29077399999999998,-10.001581972973028,-0.68983226951318755,0.033329281059610624,-9.7305036184519533,0.0046315751576424535,0.11298254727125112,-0.0006728015845418045,-0.42008786624670025,0.0092162477833032663,
0.292209,-10.001581972973028,-0.68983226951318755,0.033329281059610624,-9.635740618451953,0.061664575157642343,0.1478825472712515,-0.0053918015845417777,-0.42302786624670019,0.0082162477833032654,
0.29267599999999999,-10.609900072973028,-0.72575747051318751,-0.21096296864038941,-9.635740618451953,0.061664575157642343,0.1478825472712515,-0.0053918015845417777,-0.42302786624670019,0.0082162477833032654,
0.293653,-10.609900072973028,-0.72575747051318751,-0.21096296864038941,-9.559509618451953,0.15122957515764235,0.12858254727125207,-0.010594801584541791,-0.41234786624670039,0.0075492477833032645,
0.29511100000000001,-10.609900072973028,-0.72575747051318751,-0.21096296864038941,-9.9136256184519524,0.13795857515764232,0.052382547271252022,-0.0084948015845418001,-0.43450786624670035,0.0094572477833032575,
0.29653200000000002,-10.609900072973028,-0.72575747051318751,-0.21096296864038941,-10.111078618451954,0.20780057515764239,0.073182547271251508,-0.014197801584541814,-0.44322786624670019,0.0080002477833032715,
0.29657299999999998,-10.013550172973028,-0.70899218051318758,-0.21096296864038941,-10.111078618451954,0.20780057515764239,0.073182547271251508,-0.014197801584541814,-0.44322786624670019,0.0080002477833032715,
0.29796,-10.013550172973028,-0.70899218051318758,-0.21096296864038941,-10.195978618451953,0.20624657515764233,0.10648254727125206,-0.012983801584541821,-0.45147786624670028,0.0088392477833032501,
0.29941000000000001,-10.013550172973028,-0.70899218051318758,-0.21096296864038941,-9.8640316184519534,0.1300815751576424,0.111082547271252,-0.0068908015845418058,-0.43383786624670018,0.008032247783303248,
0.30056500000000003,-10.013550172973028,-0.70899218051318758,-0.1654573216403894,-9.8640316184519534,0.1300815751576424,0.111082547271252,-0.0068908015845418058,-0.43383786624670018,0.008032247783303248,
0.30083599999999999,-10.013550172973028,-0.70899218051318758,-0.1654573216403894,-9.5403526184519531,0.14942257515764235,0.090682547271251579,-0.0082228015845418057,-0.41729786624670018,0.0070562477833032711,
0.302257,-10.013550172973028,-0.70899218051318758,-0.1654573216403894,-9.2952526184519524,0.12595357515764238,0.13598254727125081,-0.0077438015845417985,-0.40381786624670024,0.0083122477833032504,
0.30369600000000002,-10.013550172973028,-0.70899218051318758,-0.1654573216403894,-9.2021756184519532,0.15265957515764239,0.066382547271251369,-0.0095478015845417707,-0.39620786624670035,0.0087402477833032621,
0.30451299999999998,-10.552413472973027,-0.58924151051318752,-0.26604808064038937,-9.2021756184519532,0.15265957515764239,0.066382547271251369,-0.0095478015845417707,-0.39620786624670035,0.0087402477833032621,
0.30513200000000001,-10.552413472973027,-0.58924151051318752,-0.26604808064038937,-9.4436126184519527,0.17118957515764233,0.052482547271251789,-0.010086801584541782,-0.4079278662467003,0.0081892477833032662,
0.30657000000000001,-10.552413472973027,-0.58924151051318752,-0.26604808064038937,-9.7615576184519526,0.14151157515764234,0.047882547271251852,-0.0084498015845417829,-0.4298578662467003,0.007372247783303254,
0.30800899999999998,-10.552413472973027,-0.58924151051318752,-0.26604808064038937,-9.7894516184519524,0.16141757515764232,0.087782547271251232,-0.010361801584541808,-0.43130786624670026,0.0087472477833032691,
0.30846000000000001,-9.7644840829730288,-0.64432662251318762,-0.26604808064038937,-9.7894516184519524,0.16141757515764232,0.087782547271251232,-0.010361801584541808,-0.43130786624670026,0.0087472477833032691,
0.30939699999999998,-9.7644840829730288,-0.64432662251318762,-0.26604808064038937,-9.7135346184519538,0.13840057515764237,-0.0034174527287476053,-0.010977801584541813,-0.43027786624670039,0.0091122477833032733,
0.310832,-9.7644840829730288,-0.64432662251318762,-0.26604808064038937,-9.3640626184519533,0.08902657515764234,-0.0010974527287483937,-0.0056938015845418022,-0.40716786624670021,0.0074072477833032613,
0.31228400000000001,-9.7644840829730288,-0.64432662251318762,-0.26604808064038937,-9.2276436184519532,0.12207357515764239,0.0056825472712525027,-0.0083458015845417899,-0.40208786624670023,0.0081212477833032537,
0.31240299999999999,-9.7644840829730288,-0.64432662251318762,-0.21575319164038942,-9.2276436184519532,0.12207357515764239,0.0056825472712525027,-0.0083458015845417899,-0.40208786624670023,0.0081212477833032537,
0.31371199999999999,-9.7644840829730288,-0.64432662251318762,-0.21575319164038942,-9.2012596184519531,0.1185875751576424,0.013532547271251971,-0.0062248015845418059,-0.39835786624670022,0.0082712477833032649,
0.31512000000000001,-9.7644840829730288,-0.64432662251318762,-0.21575319164038942,-9.4876116184519521,0.061804575157642372,-0.028127452728748281,-0.0045298015845418038,-0.41123786624670022,0.0086452477833032504,
0.31634699999999999,-9.8962225729730289,-0.61319164451318753,-0.27562852664038934,-9.4876116184519521,0.061804575157642372,-0.028127452728748281,-0.0045298015845418038,-0.41123786624670022,0.0086452477833032504,
0.31656800000000002,-9.8962225729730289,-0.61319164451318753,-0.27562852664038934,-9.766014618451953,0.064911575157642343,0.058282547271252483,-0.0047398015845417918,-0.43138786624670034,0.0083012477833032672,
0.31805099999999997,-9.8962225729730289,-0.61319164451318753,-0.27562852664038934,-9.8085546184519536,0.097918575157642351,-0.011127452728748821,-0.0045178015845417918,-0.4290278662467002,0.0077562477833032495,
0.31944800000000001,-9.8962225729730289,-0.61319164451318753,-0.27562852664038934,-9.7227846184519535,0.080015575157642349,-0.018407452728748552,-0.0057278015845417807,-0.43254786624670039,0.0081672477833032719,
0.32026399999999999,-10.243496572973028,-0.72336284951318752,-0.27562852664038934,-9.7227846184519535,0.080015575157642349,-0.018407452728748552,-0.0057278015845417807,-0.43254786624670039,0.0081672477833032719,
0.320855,-10.243496572973028,-0.72336284951318752,-0.27562852664038934,-9.3341216184519524,0.025226575157642372,-0.038357452728748243,-0.0065108015845418143,-0.40564786624670024,0.0080082477833032517,
0.322295,-10.243496572973028,-0.72336284951318752,-0.27562852664038934,-9.2643846184519525,0.032353575157642367,-0.052447452728747734,-0.0058618015845418037,-0.40357786624670022,0.0090032477833032476,
0.32372800000000002,-10.243496572973028,-0.72336284951318752,-0.27562852664038934,-9.1963546184519522,0.09540157515764236,-0.05580745272874843,-0.0067448015845417708,-0.39723786624670021,0.0078022477833032677,
0.32419900000000001,-10.243496572973028,-0.72336284951318752,-0.30436888364038939,-9.1963546184519522,0.09540157515764236,-0.05580745272874843,-0.0067448015845417708,-0.39723786624670021,0.0078022477833032677,
0.32516299999999998,-10.243496572973028,-0.72336284951318752,-0.30436888364038939,-9.4053906184519533,0.10688457515764238,-0.037307452728748913,-0.0069648015845418243,-0.40832786624670026,0.0085822477833032706,
0.32657999999999998,-10.243496572973028,-0.72336284951318752,-0.30436888364038939,-9.611912618451953,0.090099575157642331,-0.072437452728747687,-0.0086348015845417736,-0.42383786624670039,0.0089982477833032704,
0.328011,-10.243496572973028,-0.72336284951318752,-0.30436888364038939,-9.666914618451953,0.20252157515764235,0.002822547271252418,-0.012475801584541812,-0.42228786624670023,0.0092742477833032688,
0.32815699999999998,-9.6902420029730276,-0.74012813951318757,-0.32352879464038942,-9.666914618451953,0.20252157515764235,0.002822547271252418,-0.012475801584541812,-0.42228786624670023,0.0092742477833032688,
0.32945799999999997,-9.6902420029730276,-0.74012813951318757,-0.32352879464038942,-9.4946666184519533,0.17448957515764241,-0.045677452728748236,-0.012183801584541798,-0.41821786624670021,0.0081732477833032502,
0.330872,-9.6902420029730276,-0.74012813951318757,-0.32352879464038942,-9.2078416184519529,0.10548157515764234,-0.025307452728748459,-0.0074808015845417852,-0.39913786624670022,0.007830247783303268,
0.33213799999999999,-9.4627186729730273,-0.55810653251318754,-0.32352879464038942,-9.2078416184519529,0.10548157515764234,-0.025307452728748459,-0.0074808015845417852,-0.39913786624670022,0.007830247783303268,
0.33233000000000001,-9.4627186729730273,-0.55810653251318754,-0.32352879464038942,-9.1542526184519524,0.10785557515764232,-0.017497452728747476,-0.0064218015845418086,-0.40067786624670032,0.0079102477833032647,
0.33374500000000001,-9.4627186729730273,-0.55810653251318754,-0.32352879464038942,-9.2358736184519525,0.066526575157642376,0.059282547271251929,-0.0048178015845418143,-0.39902786624670039,0.007819247783303257,
0.33518399999999998,-9.4627186729730273,-0.55810653251318754,-0.32352879464038942,-9.6165926184519535,0.072692575157642381,0.016982547271251036,-0.0035478015845418209,-0.42228786624670023,0.0071402477833032718,
0.33604200000000001,-10.075843672973027,-0.55810653251318754,-0.41453910764038937,-9.6165926184519535,0.072692575157642381,0.016982547271251036,-0.0035478015845418209,-0.42228786624670023,0.0071402477833032718,
0.33659600000000001,-10.075843672973027,-0.55810653251318754,-0.41453910764038937,-9.6996656184519523,0.10774957515764239,0.033582547271251428,-0.0082848015845418121,-0.42611786624670023,0.0082532477833032469,
0.33803699999999998,-10.075843672973027,-0.55810653251318754,-0.41453910764038937,-9.654790618451953,0.090699575157642376,0.04288254727125107,-0.007445801584541778,-0.4275178662467003,0.0092672477833032618,
0.33947699999999997,-10.075843672973027,-0.55810653251318754,-0.41453910764038937,-9.2912466184519538,0.048551575157642413,0.047182547271251707,-0.0042918015845417878,-0.4045578662467002,0.0091312477833032646,
0.33999800000000002,-9.8937700729730285,-0.7281530725131875,-0.21096296864038941,-9.2912466184519538,0.048551575157642413,0.047182547271251707,-0.0042918015845417878,-0.4045578662467002,0.0091312477833032646,
0.34091399999999999,-9.8937700729730285,-0.7281530725131875,-0.21096296864038941,-9.1554826184519538,0.021707575157642323,0.0070725472712513948,-0.0021758015845417811,-0.39677786624670031,0.0083692477833032519,
0.342358,-9.8937700729730285,-0.7281530725131875,-0.21096296864038941,-9.1847336184519524,-0.044518424842357573,0.029782547271251403,-0.0013888015845417989,-0.39976786624670035,0.0077352477833032562,
0.34376400000000001,-9.8937700729730285,-0.7281530725131875,-0.21096296864038941,-9.4190676184519528,0.048634575157642357,0.047182547271251707,-0.0054318015845418177,-0.41063786624670029,0.0085372477833032534,
0.343918,-10.243496572973028,-0.72575747051318751,-0.21096296864038941,-9.4190676184519528,0.048634575157642357,0.047182547271251707,-0.0054318015845418177,-0.41063786624670029,0.0085372477833032534,
0.34522900000000001,-10.243496572973028,-0.72575747051318751,-0.21096296864038941,-9.5738716184519532,0.060485575157642413,0.094382547271251838,-0.0046188015845418096,-0.42174786624670024,0.0082442477833032657,
0.34664499999999998,-10.243496572973028,-0.72575747051318751,-0.21096296864038941,-9.514839618451953,0.0065415751576423098,0.048682547271251764,-0.0020638015845417801,-0.41364786624670025,0.0083402477833032507,
0.34791,-9.6303617629730276,-0.72575747051318751,-0.27323292464038934,-9.514839618451953,0.0065415751576423098,0.048682547271251764,-0.0020638015845417801,-0.41364786624670025,0.0083402477833032507,
0.34808,-9.6303617629730276,-0.72575747051318751,-0.27323292464038934,-9.5022846184519523,0.059828575157642394,0.10048254727125183,-0.0049498015845417798,-0.41739786624670039,0.007825247783303263,
0.34949799999999998,-9.6303617629730276,-0.72575747051318751,-0.27323292464038934,-9.2983416184519534,-0.020058424842357647,0.077882547271251212,-0.0015858015845418016,-0.40262786624670022,0.0087932477833032596,
0.35093800000000003,-9.6303617629730276,-0.72575747051318751,-0.27323292464038934,-9.2763436184519534,-0.032008424842357552,0.055882547271250971,0.001542198415458218,-0.40556786624670038,0.0087282477833032501,
0.35180099999999997,-10.035132172973029,-0.7568924485131876,-0.19659229964038938,-9.2763436184519534,-0.032008424842357552,0.055882547271250971,0.001542198415458218,-0.40556786624670038,0.0087282477833032501,
0.35237200000000002,-10.035132172973029,-0.7568924485131876,-0.19659229964038938,-9.3262046184519534,0.066785575157642385,0.08558254727125103,-0.0070988015845417918,-0.4043878662467002,0.009731247783303254,
0.35380899999999998,-10.035132172973029,-0.7568924485131876,-0.19659229964038938,-9.665046618451953,0.078062575157642367,0.042382547271252236,-0.0058268015845417964,-0.42511786624670034,0.0087692477833032634,
0.35522399999999998,-10.035132172973029,-0.7568924485131876,-0.19659229964038938,-9.6753776184519538,0.10166257515764232,0.01738254727125188,-0.0077388015845418212,-0.42196786624670035,0.0078522477833032622,
0.355744,-9.8458972729730281,-0.66109191251318755,-0.19659229964038938,-9.6753776184519538,0.10166257515764232,0.01738254727125188,-0.0077388015845418212,-0.42196786624670035,0.0078522477833032622,
0.35666500000000001,-9.8458972729730281,-0.66109191251318755,-0.19659229964038938,-9.7053456184519522,0.11440357515764232,0.08838254727125161,-0.0068628015845417778,-0.42961786624670029,0.0088192477833032579,
0.35809800000000003,-9.8458972729730281,-0.66109191251318755,-0.19659229964038938,-9.4903136184519532,0.081675575157642344,0.040482547271251335,-0.0055938015845418132,-0.41350786624670022,0.0088362477833032471,
0.35956100000000002,-9.8458972729730281,-0.66109191251318755,-0.19659229964038938,-9.3072506184519526,0.1015495751576424,0.037282547271251687,-0.0082558015845418109,-0.40503786624670024,0.0083362477833032744,
0.35964600000000002,-9.8458972729730281,-0.66109191251318755,-0.29478843764038937,-9.3072506184519526,0.1015495751576424,0.037282547271251687,-0.0082558015845418109,-0.40503786624670024,0.0083362477833032744,
0.36096299999999998,-9.8458972729730281,-0.66109191251318755,-0.29478843764038937,-9.2946266184519537,0.10493457515764237,0.021682547271252517,-0.0080148015845418197,-0.40608786624670024,0.008035247783303251,
0.362396,-9.8458972729730281,-0.66109191251318755,-0.29478843764038937,-9.2979546184519535,0.15624957515764237,-0.0011274527287490343,-0.009818801584541792,-0.40191786624670023,0.0087062477833032559,
0.36358600000000002,-9.9178045729730275,-0.71138778251318757,-0.26365345964038939,-9.2979546184519535,0.15624957515764237,-0.0011274527287490343,-0.009818801584541792,-0.40191786624670023,0.0087062477833032559,
0.36382500000000001,-9.9178045729730275,-0.71138778251318757,-0.26365345964038939,-9.4574516184519535,0.18832257515764239,-0.030627452728747784,-0.012509801584541791,-0.41284786624670033,0.0085952477833032559,
0.36525999999999997,-9.9178045729730275,-0.71138778251318757,-0.26365345964038939,-9.6297266184519525,0.11195157515764231,-0.05177745272874823,-0.0079128015845417732,-0.41757786624670024,0.0079022477833032567,
0.36667300000000003,-9.9178045729730275,-0.71138778251318757,-0.26365345964038939,-9.7878316184519534,0.089469575157642312,-0.10237745272874754,-0.0081828015845418212,-0.42998786624670027,0.0082842477833032502,
0.36751499999999998,-9.9178045729730275,-0.58445128751318753,-0.26365345964038939,-9.7878316184519534,0.089469575157642312,-0.10237745272874754,-0.0081828015845418212,-0.42998786624670027,0.0082842477833032502,
0.36811300000000002,-9.9178045729730275,-0.58445128751318753,-0.26365345964038939,-9.823227618451952,0.10876757515764235,-0.094577452728747957,-0.0068008015845417713,-0.42897786624670031,0.0082042477833032534,
0.36957000000000001,-9.9178045729730275,-0.58445128751318753,-0.26365345964038939,-9.898709618451953,0.097501575157642351,-0.14675745272874785,-0.0066168015845418093,-0.43325786624670037,0.0083122477833032504,
0.37100899999999998,-9.9178045729730275,-0.58445128751318753,-0.26365345964038939,-9.8685036184519532,0.16518957515764232,-0.13286745272874789,-0.011122801584541819,-0.43316786624670023,0.0084292477833032564,
0.37144100000000002,-9.9919681729730279,-0.58445128751318753,-0.40495964264038936,-9.8685036184519532,0.16518957515764232,-0.13286745272874789,-0.011122801584541819,-0.43316786624670023,0.0084292477833032564,
0.37240400000000001,-9.9919681729730279,-0.58445128751318753,-0.40495964264038936,-9.7995516184519538,0.12471157515764242,-0.12512745272874781,-0.009506801584541813,-0.42836786624670031,0.0086792477833032566,
0.37387900000000002,-9.9919681729730279,-0.58445128751318753,-0.40495964264038936,-9.720778618451952,0.088870575157642406,-0.079547452728748524,-0.0054238015845418097,-0.42206786624670034,0.0085812477833032696,
0.37529200000000001,-9.9919681729730279,-0.58445128751318753,-0.40495964264038936,-9.8675096184519528,0.087093575157642378,-0.041257452728748589,-0.0078718015845418154,-0.43195786624670029,0.0080122477833032557,
0.37542999999999999,-10.394374372973028,-0.60600680051318756,-0.50315479964038945,-9.8675096184519528,0.087093575157642378,-0.041257452728748589,-0.0078718015845418154,-0.43195786624670029,0.0080122477833032557,
0.37675199999999998,-10.394374372973028,-0.60600680051318756,-0.50315479964038945,-10.007710618451952,0.013331575157642384,-0.030357452728749124,-0.0019558015845417831,-0.43987786624670022,0.0080932477833032535,
0.37817499999999998,-10.394374372973028,-0.60600680051318756,-0.50315479964038945,-9.9596856184519531,0.058083575157642398,-0.068667452728748302,-0.0045718015845417903,-0.4356678662467004,0.0088312477833032699,
0.37932700000000003,-10.394374372973028,-0.64193200151318741,-0.50315479964038945,-9.9596856184519531,0.058083575157642398,-0.068667452728748302,-0.0045718015845417903,-0.4356678662467004,0.0088312477833032699,
0.37960500000000003,-10.394374372973028,-0.64193200151318741,-0.50315479964038945,-9.9172186184519528,0.15050957515764241,-0.078117452728747594,-0.0083578015845418019,-0.43803786624670038,0.0084962477833032679,
0.381054,-10.394374372973028,-0.64193200151318741,-0.50315479964038945,-9.7970036184519529,0.14142357515764237,-0.10947745272874876,-0.0082048015845417877,-0.42830786624670036,0.0088282477833032669,
0.38248599999999999,-10.394374372973028,-0.64193200151318741,-0.50315479964038945,-9.7542446184519527,0.1252165751576424,-0.10280745272874903,-0.0091228015845418176,-0.42434786624670018,0.0086952477833032726,
0.38326100000000002,-10.427924572973028,-0.64193200151318741,-0.36184861664038936,-9.7542446184519527,0.1252165751576424,-0.10280745272874903,-0.0091228015845418176,-0.42434786624670018,0.0086952477833032726,
0.38387100000000002,-10.427924572973028,-0.64193200151318741,-0.36184861664038936,-9.8533986184519531,0.09182357515764239,-0.055697452728749042,-0.0062968015845418224,-0.4284678662467003,0.0085422477833032584,
0.385299,-10.427924572973028,-0.64193200151318741,-0.36184861664038936,-10.080178618451953,0.06702757515764235,-0.044877452728748324,-0.0045068015845418086,-0.44527786624670029,0.0084932477833032649,
0.38673800000000003,-10.427924572973028,-0.64193200151318741,-0.36184861664038936,-10.199418618451952,0.094776575157642373,-0.059887452728748514,-0.0068718015845418146,-0.44627786624670018,0.0085752477833032636,
0.387179,-10.229075872973029,-0.6203764885131875,-0.43848924164038938,-10.199418618451952,0.094776575157642373,-0.059887452728748514,-0.0068718015845418146,-0.44627786624670018,0.0085752477833032636,
0.38817800000000002,-10.229075872973029,-0.6203764885131875,-0.43848924164038938,-10.277698618451954,0.16318157515764231,0.00071254727125236172,-0.010763801584541821,-0.45554786624670029,0.0083702477833032529,
0.38959700000000003,-10.229075872973029,-0.6203764885131875,-0.43848924164038938,-10.013646618451952,0.17137157515764234,0.012682547271252176,-0.011700801584541787,-0.44030786624670037,0.0082662477833032599,
0.39104299999999997,-10.229075872973029,-0.6203764885131875,-0.43848924164038938,-9.7456836184519524,0.1822765751576424,0.047782547271252085,-0.012384801584541805,-0.42549786624670038,0.0083132477833032514,
0.39112999999999998,-10.229075872973029,-0.60840142151318755,-0.43848924164038938,-9.7456836184519524,0.1822765751576424,0.047782547271252085,-0.012384801584541805,-0.42549786624670038,0.0083132477833032514,
0.39247100000000001,-10.229075872973029,-0.60840142151318755,-0.43848924164038938,-9.5969146184519527,0.077724575157642417,0.085882547271252108,-0.0068058015845418041,-0.41906786624670023,0.0081442477833032489,
0.39391100000000001,-10.229075872973029,-0.60840142151318755,-0.43848924164038938,-9.5191076184519527,0.030090575157642352,0.09378254727125146,-0.002873801584541813,-0.40715786624670036,0.0085792477833032676,
0.39504899999999998,-10.688968672973028,-0.60840142151318755,-0.39537919664038934,-9.5191076184519527,0.030090575157642352,0.09378254727125146,-0.002873801584541813,-0.40715786624670036,0.0085792477833032676,
0.395339,-10.688968672973028,-0.60840142151318755,-0.39537919664038934,-9.9276606184519522,0.050253575157642394,0.074382547271252264,-0.0060088015845418119,-0.43652786624670026,0.0081582477833032629,
0.39679700000000001,-10.688968672973028,-0.60840142151318755,-0.39537919664038934,-10.177148618451954,0.10420757515764234,0.053082547271252167,-0.0076538015845418195,-0.44501786624670037,0.0081602477833032649,
0.398206,-10.688968672973028,-0.60840142151318755,-0.39537919664038934,-10.323608618451953,0.097253575157642325,0.011412547271252294,-0.0077488015845417757,-0.45657786624670038,0.0094732477833032736,
0.39895000000000003,-10.140491572973028,-0.70659755951318759,-0.18940745564038941,-10.323608618451953,0.097253575157642325,0.011412547271252294,-0.0077488015845417757,-0.45657786624670038,0.0094732477833032736,
0.39964100000000002,-10.140491572973028,-0.70659755951318759,-0.18940745564038941,-10.224358618451953,0.11657257515764241,0.084082547271250974,-0.010071801584541795,-0.44952786624670038,0.0084622477833032617,
0.40107399999999999,-10.140491572973028,-0.70659755951318759,-0.18940745564038941,-9.9273276184519528,0.055764575157642327,0.081182547271252403,-0.0059428015845418014,-0.43704786624670033,0.0076332477833032653,
0.40252700000000002,-10.140491572973028,-0.70659755951318759,-0.18940745564038941,-9.7122356184519525,-0.026428424842357634,0.11968254727125149,-0.001070801584541814,-0.42304786624670032,0.0085222477833032662,
0.40288600000000002,-10.140491572973028,-0.62756133251318758,-0.18940745564038941,-9.7122356184519525,-0.026428424842357634,0.11968254727125149,-0.001070801584541814,-0.42304786624670032,0.0085222477833032662,
0.40395500000000001,-10.140491572973028,-0.62756133251318758,-0.18940745564038941,-9.6471196184519528,-0.023948424842357596,0.20278254727125145,0.00064119841545817735,-0.4195378662467002,0.0083202477833032584,
0.40540300000000001,-10.140491572973028,-0.62756133251318758,-0.18940745564038941,-9.7732336184519522,0.047483575157642344,0.13298254727125247,-0.0060358015845418111,-0.42529786624670018,0.0079102477833032647,
0.406831,-10.559672872973028,-0.62756133251318758,-0.25886323664038935,-9.7732336184519522,0.047483575157642344,0.13298254727125247,-0.0060358015845418111,-0.42529786624670018,0.0079102477833032647,
0.40683599999999998,-10.559672872973028,-0.62756133251318758,-0.25886323664038935,-9.9584066184519529,0.057396575157642404,0.12758254727125085,-0.0041098015845417724,-0.43973786624670019,0.0075612477833032488,
0.408271,-10.559672872973028,-0.62756133251318758,-0.25886323664038935,-9.9188926184519524,0.076996575157642355,0.097382547271251951,-0.0067958015845417941,-0.43475786624670021,0.0085862477833032746,
0.40966799999999998,-10.559672872973028,-0.62756133251318758,-0.25886323664038935,-9.7243986184519535,0.037297575157642315,0.088982547271251988,-0.00512880158454182,-0.42625786624670026,0.0088652477833032484,
0.410802,-10.360824172973027,-0.69941271551318751,-0.1774323886403894,-9.7243986184519535,0.037297575157642315,0.088982547271251988,-0.00512880158454182,-0.42625786624670026,0.0088652477833032484,
0.41111900000000001,-10.360824172973027,-0.69941271551318751,-0.1774323886403894,-9.6236776184519535,0.012971575157642468,0.11048254727125162,-0.0016018015845418176,-0.41984786624670023,0.0081932477833032702,
0.41254000000000002,-10.360824172973027,-0.69941271551318751,-0.1774323886403894,-9.6572626184519521,0.015681575157642458,0.11908254727125112,-0.0017398015845417891,-0.4210978662467002,0.0086192477833032521,
0.41394900000000001,-10.360824172973027,-0.69941271551318751,-0.1774323886403894,-9.8162926184519534,-0.012598424842357625,0.12798254727125169,-0.0011948015845417714,-0.42918786624670036,0.0083122477833032504,
0.41472999999999999,-10.360824172973027,-0.79521325151318745,-0.1774323886403894,-9.8162926184519534,-0.012598424842357625,0.12798254727125169,-0.0011948015845417714,-0.42918786624670036,0.0083122477833032504,
0.41538700000000001,-10.360824172973027,-0.79521325151318745,-0.1774323886403894,-9.9878676184519524,0.066265575157642309,0.067382547271250814,-0.0044108015845418236,-0.4399078662467002,0.0079162477833032707,
0.416821,-10.360824172973027,-0.79521325151318745,-0.1774323886403894,-10.085448618451952,0.082144575157642397,0.098782547271252241,-0.007379801584541823,-0.44189786624670035,0.0085482477833032644,
0.41828399999999999,-10.360824172973027,-0.79521325151318745,-0.1774323886403894,-10.028367618451952,0.042846575157642341,0.052582547271251556,-0.0052978015845417947,-0.44330786624670027,0.0079072477833032617,
0.41866399999999998,-10.121362072973028,-0.79521325151318745,-0.26125785764038939,-10.028367618451952,0.042846575157642341,0.052582547271251556,-0.0052978015845417947,-0.44330786624670027,0.0079072477833032617,
0.419678,-10.121362072973028,-0.79521325151318745,-0.26125785764038939,-9.7364076184519526,0.062446575157642403,0.048582547271251997,-0.0052608015845417855,-0.42437786624670037,0.0075282477833032713,
0.42111599999999999,-10.121362072973028,-0.79521325151318745,-0.26125785764038939,-9.6516946184519536,0.10441157515764232,0.040682547271250868,-0.0066338015845417986,-0.42111786624670033,0.0081282477833032607,
0.42254399999999998,-10.121362072973028,-0.79521325151318745,-0.26125785764038939,-9.6214846184519534,0.04185357515764232,0.03298254727125105,-0.0041358015845417984,-0.41519786624670019,0.0080102477833032537,
0.42258000000000001,-10.363276672973027,-0.65390706851318747,-0.24209794664038942,-9.6214846184519534,0.04185357515764232,0.03298254727125105,-0.0041358015845417984,-0.41519786624670019,0.0080102477833032537,
0.42402000000000001,-10.363276672973027,-0.65390706851318747,-0.24209794664038942,-9.8698256184519533,0.083850575157642382,0.012372547271251477,-0.0054758015845418062,-0.43358786624670032,0.0077992477833032647,
0.42543599999999998,-10.363276672973027,-0.65390706851318747,-0.24209794664038942,-10.034068618451952,0.12139857515764241,-0.024257452728749129,-0.0087598015845418153,-0.4390078662467003,0.0083892477833032719,
0.426512,-10.363276672973027,-0.65390706851318747,-0.24209794664038942,-10.034068618451952,0.12139857515764241,-0.024257452728749129,-0.0087598015845418153,-0.4390078662467003,0.0083892477833032719,
0.42685000000000001,-10.363276672973027,-0.65390706851318747,-0.24209794664038942,-10.117458618451954,0.097598575157642364,-0.014107452728747916,-0.0091438015845418108,-0.44494786624670035,0.0093502477833032616,
0.428282,-10.363276672973027,-0.65390706851318747,-0.24209794664038942,-9.9275896184519539,0.092756575157642351,-0.046207452728747711,-0.0066118015845417766,-0.4387378662467003,0.0089322477833032599,
0.429732,-10.363276672973027,-0.65390706851318747,-0.24209794664038942,-9.5835416184519531,0.070762575157642393,-0.065897452728748362,-0.0042918015845417878,-0.41746786624670018,0.0081132477833032735,
0.43043700000000001,-10.394374372973028,-0.65869729151318746,-0.34747892864038937,-9.5835416184519531,0.070762575157642393,-0.065897452728748362,-0.0042918015845417878,-0.41746786624670018,0.0081132477833032735,
0.43114000000000002,-10.394374372973028,-0.65869729151318746,-0.34747892864038937,-9.4908046184519534,0.097954575157642387,-0.037317452728748535,-0.0045308015845417771,-0.41455786624670021,0.0075562477833032715,
0.43257400000000001,-10.394374372973028,-0.65869729151318746,-0.34747892864038937,-9.4177906184519529,0.071625575157642341,-0.021737452728748607,-0.006929801584541817,-0.4091478662467003,0.0086032477833032639,
0.43401499999999998,-10.394374372973028,-0.65869729151318746,-0.34747892864038937,-9.4555926184519521,0.089667575157642343,-0.1038774527287476,-0.0035888015845417787,-0.41078786624670038,0.0089342477833032619,
0.43436399999999997,-9.9369340729730276,-0.69222689051318753,-0.34747892864038937,-9.4555926184519521,0.089667575157642343,-0.1038774527287476,-0.0035888015845417787,-0.41078786624670038,0.0089342477833032619,
0.435446,-9.9369340729730276,-0.69222689051318753,-0.34747892864038937,-9.7233196184519528,0.15776757515764239,-0.058547452728747729,-0.0098658015845418112,-0.42588786624670028,0.008043247783303259,
0.43686199999999997,-9.9369340729730276,-0.69222689051318753,-0.34747892864038937,-9.8612336184519531,0.15827957515764235,-0.086827452728748256,-0.0096648015845418045,-0.43591786624670026,0.0083202477833032584,
0.43830400000000003,-9.9369340729730276,-0.69222689051318753,-0.29239381664038938,-9.8612336184519531,0.15827957515764235,-0.086827452728748256,-0.0096648015845418045,-0.43591786624670026,0.0083202477833032584,
0.438309,-9.9369340729730276,-0.69222689051318753,-0.29239381664038938,-9.6854046184519529,0.067652575157642336,-0.1103474527287478,-0.0063898015845417766,-0.4253678662467002,0.0083532477833032637,
0.43974400000000002,-9.9369340729730276,-0.69222689051318753,-0.29239381664038938,-9.3842386184519526,0.086596575157642408,-0.051837452728747735,-0.007017801584541794,-0.41020786624670036,0.0089272477833032549,
0.44118600000000002,-9.9369340729730276,-0.69222689051318753,-0.29239381664038938,-9.1898746184519524,0.052577575157642387,-0.077987452728748963,-0.0048508015845418195,-0.39841786624670039,0.0077632477833032565,
0.44222400000000001,-10.253110372973028,-0.57966106451318755,-0.46483497764038934,-9.1898746184519524,0.052577575157642387,-0.077987452728748963,-0.0048508015845418195,-0.39841786624670039,0.0077632477833032565,
0.44261600000000001,-10.253110372973028,-0.57966106451318755,-0.46483497764038934,-9.2335496184519528,0.067300575157642317,-0.083427452728749074,-0.0037288015845418077,-0.40122786624670037,0.0087002477833032499,
0.44403799999999999,-10.253110372973028,-0.57966106451318755,-0.46483497764038934,-9.3952296184519533,0.1100125751576424,-0.14481745272874846,-0.0087218015845417773,-0.40666786624670026,0.0083342477833032724,
0.44546799999999998,-10.253110372973028,-0.57966106451318755,-0.46483497764038934,-9.6345236184519525,0.11802757515764239,-0.14854745272874759,-0.0073988015845418142,-0.42387786624670021,0.0088052477833032716,
0.44617200000000001,-9.6159999229730282,-0.66588213551318753,-0.46483497764038934,-9.6345236184519525,0.11802757515764239,-0.14854745272874759,-0.0073988015845418142,-0.42387786624670021,0.0088052477833032716,
0.44690400000000002,-9.6159999229730282,-0.66588213551318753,-0.46483497764038934,-9.6780026184519521,0.16927257515764238,-0.080017452728748495,-0.010232801584541817,-0.4226378662467003,0.0093242477833032633,
0.44834400000000002,-9.6159999229730282,-0.66588213551318753,-0.46483497764038934,-9.6344196184519522,0.12518057515764236,-0.059097452728748223,-0.009938801584541801,-0.42766786624670039,0.007813247783303251,
0.44978499999999999,-9.6159999229730282,-0.66588213551318753,-0.46483497764038934,-9.2849296184519527,0.096144575157642409,-0.069377452728748068,-0.0057278015845417807,-0.40507786624670028,0.007937247783303264,
0.45011099999999998,-9.6159999229730282,-0.66588213551318753,-0.33550386164038937,-9.2849296184519527,0.096144575157642409,-0.069377452728748068,-0.0057278015845417807,-0.40507786624670028,0.007937247783303264,
0.45119999999999999,-9.6159999229730282,-0.66588213551318753,-0.33550386164038937,-9.1176556184519537,0.15802957515764238,-0.010997452728748414,-0.0093898015845417793,-0.39861786624670037,0.0080302477833032737,
0.45264500000000002,-9.6159999229730282,-0.66588213551318753,-0.33550386164038937,-8.9598576184519523,0.13316357515764232,-0.065927452728749003,-0.0090448015845417951,-0.38702786624670038,0.008053247783303269,
0.45403399999999999,-9.9824524729730264,-0.57966106451318755,-0.42651417464038943,-8.9598576184519523,0.13316357515764232,-0.065927452728749003,-0.0090448015845417951,-0.38702786624670038,0.008053247783303269,
0.45407500000000001,-9.9824524729730264,-0.57966106451318755,-0.42651417464038943,-8.9928966184519528,0.11411357515764231,-0.048897452728748902,-0.0059218015845418082,-0.38879786624670021,0.0084862477833032579,
0.45548699999999998,-9.9824524729730264,-0.57966106451318755,-0.42651417464038943,-9.2465526184519522,0.20146657515764232,-0.018927452728748406,-0.013970801584541781,-0.40191786624670023,0.0079762477833032475,
0.45691999999999999,-9.9824524729730264,-0.57966106451318755,-0.42651417464038943,-9.4620196184519525,0.17761757515764232,-0.059797452728748368,-0.0082308015845418137,-0.41611786624670022,0.0085462477833032624,
0.457986,-9.4459533829730287,-0.60840142151318755,-0.42651417464038943,-9.4620196184519525,0.17761757515764232,-0.059797452728748368,-0.0082308015845418137,-0.41611786624670022,0.0085462477833032624,
0.458366,-9.4459533829730287,-0.60840142151318755,-0.42651417464038943,-9.4276156184519522,0.14115757515764238,-0.068077452728747545,-0.0087208015845418041,-0.41519786624670019,0.0082472477833032687,
0.45979999999999999,-9.4459533829730287,-0.60840142151318755,-0.42651417464038943,-9.1452076184519537,0.16156957515764236,0.01244254727125238,-0.011284801584541815,-0.39865786624670019,0.0086072477833032679,
0.46121600000000001,-9.4459533829730287,-0.60840142151318755,-0.42651417464038943,-8.9496816184519528,0.065865575157642353,-0.026227452728749157,-0.0028188015845417858,-0.3888978662467002,0.007946247783303273,
0.46192499999999997,-9.4459533829730287,-0.60840142151318755,-0.29957866064038935,-8.9496816184519528,0.065865575157642353,-0.026227452728749157,-0.0028188015845417858,-0.3888978662467002,0.007946247783303273,
0.46265200000000001,-9.4459533829730287,-0.60840142151318755,-0.29957866064038935,-8.9074456184519537,0.1107305751576424,-0.020437452728748084,-0.0071808015845418183,-0.38459786624670023,0.007945247783303272,
0.46410000000000001,-9.4459533829730287,-0.60840142151318755,-0.29957866064038935,-9.0960196184519528,0.10641857515764241,0.013902547271252175,-0.0073988015845418142,-0.39349786624670036,0.0092692477833032638,
0.46553099999999997,-9.4459533829730287,-0.60840142151318755,-0.29957866064038935,-9.3476936184519523,0.082053575157642333,-0.020137452728748784,-0.0027158015845418215,-0.40813786624670034,0.0093462477833032576,
0.46582899999999999,-9.496249252973028,-0.5940317335131875,-0.29957866064038935,-9.3476936184519523,0.082053575157642333,-0.020137452728748784,-0.0027158015845418215,-0.40813786624670034,0.0093462477833032576,
0.46694400000000003,-9.496249252973028,-0.5940317335131875,-0.29957866064038935,-9.5629926184519523,0.13230657515764233,-0.028387452728749096,-0.011050801584541803,-0.42179786624670035,0.0087532477833032474,
0.468389,-9.496249252973028,-0.5940317335131875,-0.29957866064038935,-9.5091406184519531,0.041572575157642344,-0.08103745272874896,-0.0034288015845417852,-0.41578786624670028,0.0083062477833032722,
0.46976699999999999,-9.2974594129730281,-0.63235155551318756,-0.29957866064038935,-9.5091406184519531,0.041572575157642344,-0.08103745272874896,-0.0034288015845417852,-0.41578786624670028,0.0083062477833032722,
0.46982600000000002,-9.2974594129730281,-0.63235155551318756,-0.29957866064038935,-9.4899946184519521,0.039299575157642375,-0.12491745272874866,-0.0023858015845418246,-0.41640786624670034,0.0092922477833032591,
0.47126200000000001,-9.2974594129730281,-0.63235155551318756,-0.29957866064038935,-9.4263746184519537,0.11887157515764235,-0.1292774527287488,-0.010767801584541825,-0.4088278662467002,0.0086242477833032571,
0.47267900000000002,-9.2974594129730281,-0.63235155551318756,-0.29957866064038935,-9.468949618451953,0.035404575157642393,-0.22618745272874818,-0.0024848015845417848,-0.4115878662467003,0.0081462477833032509,
0.47370800000000002,-9.9105451729730287,-0.63235155551318756,-0.37621928564038937,-9.468949618451953,0.035404575157642393,-0.22618745272874818,-0.0024848015845417848,-0.4115878662467003,0.0081462477833032509,
0.47411300000000001,-9.9105451729730287,-0.63235155551318756,-0.37621928564038937,-9.6799006184519527,0.061511575157642384,-0.25338745272874874,-0.0047328015845418125,-0.4241778662467004,0.0091272477833032606,
0.47554800000000003,-9.9105451729730287,-0.63235155551318756,-0.37621928564038937,-9.8013536184519534,0.11903257515764232,-0.26187745272874885,-0.0089388015845418001,-0.42339786624670039,0.0089672477833032671,
0.47698499999999999,-9.9105451729730287,-0.63235155551318756,-0.37621928564038937,-10.241968618451953,0.033461575157642365,-0.25570745272874795,-0.0022958015845417901,-0.45233786624670036,0.0084852477833032569,
0.47765099999999999,-9.8722861729730287,-0.62995693451318757,-0.50315479964038945,-10.241968618451953,0.033461575157642365,-0.25570745272874795,-0.0022958015845417901,-0.45233786624670036,0.0084852477833032569,
0.478433,-9.8722861729730287,-0.62995693451318757,-0.50315479964038945,-10.373368618451952,0.079414575157642386,-0.24263745272874893,-0.0077228015845418052,-0.45559786624670018,0.0073992477833032533,
0.47984399999999999,-9.8722861729730287,-0.62995693451318757,-0.50315479964038945,-10.483468618451953,0.085525575157642364,-0.24684745272874764,-0.0066068015845417993,-0.4652078662467003,0.0084742477833032737,
0.48130499999999998,-9.8722861729730287,-0.62995693451318757,-0.50315479964038945,-10.169968618451954,0.066948575157642409,-0.2802774527287486,-0.0068398015845417826,-0.44938786624670035,0.0085442477833032604,
0.48156300000000002,-10.193171272973029,-0.6203764885131875,-0.50315479964038945,-10.169968618451954,0.066948575157642409,-0.2802774527287486,-0.0068398015845417826,-0.44938786624670035,0.0085442477833032604,
0.48272100000000001,-10.193171272973029,-0.6203764885131875,-0.50315479964038945,-9.9575466184519534,0.085952575157642319,-0.26882745272874864,-0.007139801584541805,-0.42975786624670032,0.0081282477833032607,
0.484157,-10.193171272973029,-0.6203764885131875,-0.50315479964038945,-10.107588618451953,0.039624575157642394,-0.2976774527287489,-0.0063858015845417726,-0.44299786624670023,0.007596247783303256,
0.48548799999999998,-10.806296272973029,-0.6203764885131875,-0.61093138364038946,-10.107588618451953,0.039624575157642394,-0.2976774527287489,-0.0063858015845417726,-0.44299786624670023,0.007596247783303256,
0.48559799999999997,-10.806296272973029,-0.6203764885131875,-0.61093138364038946,-10.367328618451953,0.15402757515764232,-0.27387745272874753,-0.010361801584541808,-0.45067786624670036,0.0077952477833032607,
0.48702299999999998,-10.806296272973029,-0.6203764885131875,-0.61093138364038946,-10.624628618451952,0.1026035751576424,-0.23830745272874765,-0.0075208015845418252,-0.47089786624670027,0.0084332477833032604,
0.48845899999999998,-10.806296272973029,-0.6203764885131875,-0.61093138364038946,-10.566978618451953,0.13005857515764241,-0.22595745272874801,-0.010356801584541775,-0.46499786624670025,0.0076482477833032525,
0.48940899999999998,-10.559672872973028,-0.68025182351318758,-0.65883165164038937,-10.566978618451953,0.13005857515764241,-0.22595745272874801,-0.010356801584541775,-0.46499786624670025,0.0076482477833032525,
0.48988199999999998,-10.559672872973028,-0.68025182351318758,-0.65883165164038937,-10.277738618451952,0.1033835751576424,-0.12278745272874758,-0.010188801584541773,-0.45420786624670018,0.0070572477833032721,
0.49131399999999997,-10.559672872973028,-0.68025182351318758,-0.65883165164038937,-9.9078226184519522,0.015581575157642469,-0.16941745272874797,-0.0018758015845418141,-0.43232786624670028,0.0075152477833032583,
0.49274699999999999,-10.559672872973028,-0.68025182351318758,-0.65883165164038937,-9.7461786184519532,0.044162575157642325,-0.17186745272874759,-0.0044028015845418156,-0.42437786624670037,0.0074282477833032545,
0.49334,-10.559672872973028,-0.60600680051318756,-0.65883165164038937,-9.7461786184519532,0.044162575157642325,-0.17186745272874759,-0.0044028015845418156,-0.42437786624670037,0.0074282477833032545,
0.494172,-10.559672872973028,-0.60600680051318756,-0.65883165164038937,-9.8523936184519521,0.049962575157642353,-0.12448745272874895,-0.0044018015845417868,-0.42044786624670039,0.0084012477833032562,
0.49561100000000002,-10.559672872973028,-0.60600680051318756,-0.65883165164038937,-10.362698618451953,0.0824805751576424,-0.17989745272874913,-0.0063658015845418081,-0.45675786624670023,0.0083752477833032579,
0.49706699999999998,-10.559672872973028,-0.60600680051318756,-0.65883165164038937,-10.592418618451953,0.13466957515764233,-0.095267452728748481,-0.010463801584541799,-0.46456786624670032,0.0084782477833032499,
0.49727700000000002,-10.629127672973027,-0.60600680051318756,-0.4768100446403894,-10.592418618451953,0.13466957515764233,-0.095267452728748481,-0.010463801584541799,-0.46456786624670032,0.0084782477833032499,
0.498477,-10.629127672973027,-0.60600680051318756,-0.4768100446403894,-10.803828618451952,0.086676575157642377,-0.0067674527287486796,-0.0074178015845418055,-0.48318786624670018,0.0091452477833032508,
0.49994899999999998,-10.629127672973027,-0.60600680051318756,-0.4768100446403894,-10.420678618451953,-0.0089784248423576685,0.018382547271251326,-0.0020758015845417921,-0.45926786624670024,0.0074402477833032665,
0.50121099999999996,-10.952465272973027,-0.72336284951318752,-0.5462658256403895,-10.420678618451953,-0.0089784248423576685,0.018382547271251326,-0.0020758015845417921,-0.45926786624670024,0.0074402477833032665,
0.50140799999999996,-10.952465272973027,-0.72336284951318752,-0.5462658256403895,-9.9929816184519531,-0.088468424842357729,0.07818254727125229,0.0031941984154582048,-0.43601786624670025,0.0086292477833032621,
0.50278,-10.952465272973027,-0.72336284951318752,-0.5462658256403895,-9.7896116184519535,-0.064838424842357689,0.036582547271251542,0.0014251984154581843,-0.4290778662467003,0.0077942477833032597,
0.50419800000000004,-10.952465272973027,-0.72336284951318752,-0.5462658256403895,-9.6456386184519527,-0.012238424842357709,0.0038625472712521258,-0.0018998015845417826,-0.41244786624670038,0.0084202477833032474,
0.50513200000000003,-10.952465272973027,-0.82634822951318754,-0.5462658256403895,-9.6456386184519527,-0.012238424842357709,0.0038625472712521258,-0.0018998015845417826,-0.41244786624670038,0.0084202477833032474,
0.505637,-10.952465272973027,-0.82634822951318754,-0.5462658256403895,-10.202598618451953,0.06945857515764231,-0.021467452728748171,-0.0069418015845417735,-0.4513978662467002,0.0084452477833032724,
0.50706600000000002,-10.952465272973027,-0.82634822951318754,-0.5462658256403895,-10.338818618451953,0.1481155751576424,-0.052787452728749074,-0.013076801584541775,-0.45122786624670019,0.0085312477833032474,
0.50853199999999998,-10.952465272973027,-0.82634822951318754,-0.5462658256403895,-10.453248618451953,0.037899575157642418,-0.046867452728747594,-0.0032238015845417745,-0.46806786624670038,0.0091732477833032511,
0.50906499999999999,-10.351308472973027,-0.82634822951318754,-0.21335758964038942,-10.453248618451953,0.037899575157642418,-0.046867452728747594,-0.0032238015845417745,-0.46806786624670038,0.0091732477833032511,
0.50992999999999999,-10.351308472973027,-0.82634822951318754,-0.21335758964038942,-9.9816776184519522,0.0065215751576424008,-0.039347452728748067,-0.00296180158454179,-0.43508786624670037,0.00770124778330325,
0.51136000000000004,-10.351308472973027,-0.82634822951318754,-0.21335758964038942,-9.8349466184519532,0.047775575157642414,-0.033537452728747752,-0.0066278015845417926,-0.43280786624670031,0.0078532477833032632,
0.51279699999999995,-10.351308472973027,-0.82634822951318754,-0.21335758964038942,-9.5873796184519531,0.0015615751576423254,-0.066167452728748799,-0.00094480158454179897,-0.41317786624670028,0.007494247783303265,
0.51301600000000003,-10.916462572973026,-0.70899218051318758,-0.39058897364038941,-9.5873796184519531,0.0015615751576423254,-0.066167452728748799,-0.00094480158454179897,-0.41317786624670028,0.007494247783303265,
0.51425600000000005,-10.916462572973026,-0.70899218051318758,-0.39058897364038941,-9.7103686184519535,0.14839157515764234,-0.058817452728748165,-0.010881801584541773,-0.42069786624670025,0.0083362477833032744,
0.51564699999999997,-10.916462572973026,-0.70899218051318758,-0.39058897364038941,-10.024981618451953,0.18872357515764238,-0.024967452728748896,-0.013241801584541801,-0.43992786624670033,0.0087652477833032594,
0.51697300000000002,-10.916462572973026,-0.62756133251318758,-0.39058897364038941,-10.024981618451953,0.18872357515764238,-0.024967452728748896,-0.013241801584541801,-0.43992786624670033,0.0087652477833032594,
0.51708799999999999,-10.916462572973026,-0.62756133251318758,-0.39058897364038941,-10.210168618451952,0.12484357515764233,-0.067357452728748157,-0.0084738015845418069,-0.44833786624670036,0.0088222477833032609,
0.51852900000000002,-10.916462572973026,-0.62756133251318758,-0.39058897364038941,-10.107418618451954,0.1144835751576424,-0.075937452728748411,-0.0096198015845417872,-0.45054786624670018,0.0085672477833032556,
0.51996200000000004,-10.916462572973026,-0.62756133251318758,-0.39058897364038941,-9.731714618451953,0.034506575157642327,-0.1387874527287476,-0.0036518015845418139,-0.42123786624670023,0.0091932477833032711,
0.52094799999999997,-10.147652872973026,-0.62756133251318758,-0.40495964264038936,-9.731714618451953,0.034506575157642327,-0.1387874527287476,-0.0036518015845418139,-0.42123786624670023,0.0091932477833032711,
0.52138499999999999,-10.147652872973026,-0.62756133251318758,-0.40495964264038936,-9.662765618451953,0.078797575157642408,-0.13253745272874795,-0.0040868015845417771,-0.4271978662467002,0.0084282477833032554,
0.52283599999999997,-10.147652872973026,-0.62756133251318758,-0.40495964264038936,-9.5166466184519525,0.18521557515764231,-0.14610745272874759,-0.0124908015845418,-0.40833786624670032,0.0077682477833032615,
0.52427999999999997,-10.147652872973026,-0.62756133251318758,-0.40495964264038936,-9.6757576184519536,0.10790257515764234,-0.21731745272874825,-0.0076948015845417772,-0.42603786624670037,0.0083532477833032637,
0.52488699999999999,-10.255464772973028,-0.73773253751318757,-0.36903444164038934,-9.6757576184519536,0.10790257515764234,-0.21731745272874825,-0.0076948015845417772,-0.42603786624670037,0.0083532477833032637,
0.52572300000000005,-10.255464772973028,-0.73773253751318757,-0.36903444164038934,-9.6773856184519538,0.11458157515764233,-0.18016745272874779,-0.0073968015845418122,-0.41600786624670039,0.0083472477833032577,
0.52713500000000002,-10.255464772973028,-0.73773253751318757,-0.36903444164038934,-9.9361696184519523,0.12351657515764236,-0.16902745272874853,-0.0099898015845418242,-0.44080786624670032,0.0086522477833032574,
0.52859100000000003,-10.255464772973028,-0.73773253751318757,-0.36903444164038934,-9.7277606184519527,0.029452575157642324,-0.16138745272874822,-0.002615801584541777,-0.42699786624670022,0.0088542477833032651,
0.52881500000000004,-10.255464772973028,-0.65630168951318746,-0.36903444164038934,-9.7277606184519527,0.029452575157642324,-0.16138745272874822,-0.002615801584541777,-0.42699786624670022,0.0088542477833032651,
0.53002499999999997,-10.255464772973028,-0.65630168951318746,-0.36903444164038934,-9.4464736184519538,0.069241575157642399,-0.25832745272874824,-0.0073968015845418122,-0.41134786624670028,0.0079552477833032542,
0.53145299999999995,-10.255464772973028,-0.65630168951318746,-0.36903444164038934,-9.2444516184519525,0.086151575157642379,-0.2286374527287478,-0.0090108015845418166,-0.40323786624670022,0.0089232477833032509,
0.53275300000000003,-10.221914572973027,-0.65630168951318746,-0.5462658256403895,-9.2444516184519525,0.086151575157642379,-0.2286374527287478,-0.0090108015845418166,-0.40323786624670022,0.0089232477833032509,
0.53286199999999995,-10.221914572973027,-0.65630168951318746,-0.5462658256403895,-9.1127486184519526,0.12129057515764241,-0.32337745272874763,-0.0074748015845417792,-0.39193786624670035,0.0077392477833032602,
0.53429199999999999,-10.221914572973027,-0.65630168951318746,-0.5462658256403895,-9.4124126184519525,0.13235457515764237,-0.29021745272874888,-0.0082318015845417869,-0.40790786624670039,0.0076542477833032585,
0.535748,-10.221914572973027,-0.65630168951318746,-0.5462658256403895,-9.7332656184519522,0.048130575157642408,-0.33066745272874876,-0.0052748015845417995,-0.42529786624670018,0.0081572477833032619,
0.53669,-9.5680976929730281,-0.6203764885131875,-0.58458564764038945,-9.7332656184519522,0.048130575157642408,-0.33066745272874876,-0.0052748015845417995,-0.42529786624670018,0.0081572477833032619,
0.53716299999999995,-9.5680976929730281,-0.6203764885131875,-0.58458564764038945,-9.8447406184519526,0.046939575157642355,-0.26086745272874801,-0.0057768015845418019,-0.43498786624670038,0.0081232477833032557,
0.53861000000000003,-9.5680976929730281,-0.6203764885131875,-0.58458564764038945,-9.6833216184519522,0.11411857515764234,-0.2087974527287475,-0.0087068015845417901,-0.42682786624670022,0.0090222477833032666,
0.54002499999999998,-9.5680976929730281,-0.6203764885131875,-0.58458564764038945,-9.332632618451953,0.062446575157642403,-0.22860745272874894,-0.0045538015845417723,-0.40561786624670026,0.0078022477833032677,
0.54064199999999996,-9.5680976929730281,-0.7592880505131876,-0.58458564764038945,-9.332632618451953,0.062446575157642403,-0.22860745272874894,-0.0045538015845417723,-0.40561786624670026,0.0078022477833032677,
0.54144199999999998,-9.5680976929730281,-0.7592880505131876,-0.58458564764038945,-9.1010376184519526,0.085270575157642359,-0.22267745272874784,-0.0061418015845418061,-0.39710786624670025,0.0083252477833032634,
0.54290000000000005,-9.5680976929730281,-0.7592880505131876,-0.58458564764038945,-8.9704636184519533,0.13779957515764241,-0.23113745272874908,-0.0083378015845417819,-0.38603786624670033,0.0093422477833032536,
0.54431799999999997,-9.5680976929730281,-0.7592880505131876,-0.58458564764038945,-9.0404756184519535,0.057674575157642405,-0.36762745272874753,-0.0050468015845417935,-0.39007786624670038,0.0084332477833032604,
0.54458300000000004,-10.262626072973028,-0.7592880505131876,-0.65643604964038937,-9.0404756184519535,0.057674575157642405,-0.36762745272874753,-0.0050468015845417935,-0.39007786624670038,0.0084332477833032604,
0.54575099999999999,-10.262626072973028,-0.7592880505131876,-0.65643604964038937,-9.4175096184519536,0.20881757515764232,-0.26782745272874919,-0.014777801584541783,-0.41168786624670028,0.0083062477833032722,
0.54718699999999998,-10.262626072973028,-0.7592880505131876,-0.65643604964038937,-9.4825466184519538,0.16046957515764237,-0.31915745272874751,-0.0084498015845417829,-0.41839786624670028,0.0078642477833032742,
0.54852900000000004,-9.4267944529730272,-0.66348751451318755,-1.1019130546403895,-9.4825466184519538,0.16046957515764237,-0.31915745272874751,-0.0084498015845417829,-0.41839786624670028,0.0078642477833032742,
0.548628,-9.4267944529730272,-0.66348751451318755,-1.1019130546403895,-9.2165326184519536,0.1767055751576424,-0.35747745272874809,-0.012153801584541823,-0.4053178662467003,0.0099262477833032547,
0.55005899999999996,-9.4267944529730272,-0.66348751451318755,-1.1019130546403895,-9.0384436184519537,0.18105857515764234,-0.27872745272874866,-0.009928801584541791,-0.39288786624670036,0.0078432477833032532,
0.55147599999999997,-9.4267944529730272,-0.66348751451318755,-1.1019130546403895,-8.8799996184519525,0.12979757515764234,-0.41843745272874777,-0.009476801584541783,-0.38329786624670037,0.0069632477833032613,
0.55245999999999995,-9.4267944529730272,-1.1329156345131874,-0.4887851116403894,-8.8799996184519525,0.12979757515764234,-0.41843745272874777,-0.009476801584541783,-0.38329786624670037,0.0069632477833032613,
0.55291400000000002,-9.4267944529730272,-1.1329156345131874,-0.4887851116403894,-9.0340716184519536,0.15518357515764236,-0.29979745272874858,-0.0062838015845417816,-0.39597786624670039,0.0081902477833032672,
0.55434499999999998,-9.4267944529730272,-1.1329156345131874,-0.4887851116403894,-9.1524606184519524,0.19895457515764237,-0.35220745272874865,-0.013964801584541775,-0.39556786624670037,0.0095562477833032733,
0.55577299999999996,-9.4267944529730272,-1.1329156345131874,-0.4887851116403894,-9.2983546184519525,0.10875357515764239,-0.3415574527287486,-0.0051518015845418152,-0.41179786624670034,0.0085202477833032642,
0.55641600000000002,-9.4507406629730273,-0.51978572951318747,-0.57740080364038948,-9.2983546184519525,0.10875357515764239,-0.3415574527287486,-0.0051518015845418152,-0.41179786624670034,0.0085202477833032642,
0.55718800000000002,-9.4507406629730273,-0.51978572951318747,-0.57740080364038948,-9.2723096184519527,0.11280557515764233,-0.32865745272874847,-0.0069108015845417703,-0.40017786624670038,0.0080762477833032642,
0.55862800000000001,-9.4507406629730273,-0.51978572951318747,-0.57740080364038948,-9.4203426184519525,0.083381575157642329,-0.31090745272874898,-0.007481801584541814,-0.41915786624670037,0.0080732477833032612,
0.56006699999999998,-9.4507406629730273,-0.51978572951318747,-0.57740080364038948,-9.0455076184519534,0.0002815751576423775,-0.40631745272874831,-0.0039798015845418089,-0.38892786624670039,0.0077442477833032652,
0.56036799999999998,-9.7908337429730281,-0.62277209051318749,-0.028941263540389377,-9.0455076184519534,0.0002815751576423775,-0.40631745272874831,-0.0039798015845418089,-0.38892786624670039,0.0077442477833032652,
0.56156399999999995,-9.7908337429730281,-0.62277209051318749,-0.028941263540389377,-9.0050866184519531,0.028047575157642335,-0.35836745272874815,-0.0034678015845417964,-0.38907786624670027,0.0093442477833032556,
0.56297699999999995,-9.7908337429730281,-0.62277209051318749,-0.028941263540389377,-9.1465246184519522,0.10913657515764241,-0.41444745272874783,-0.0073688015845417842,-0.39266786624670025,0.0076642477833032685,
0.56437000000000004,-9.7908337429730281,-0.62277209051318749,-0.64206636164038933,-9.1465246184519522,0.10913657515764241,-0.41444745272874783,-0.0073688015845417842,-0.39266786624670025,0.0076642477833032685,
0.56438299999999997,-9.7908337429730281,-0.62277209051318749,-0.64206636164038933,-9.5081546184519521,0.033870575157642357,-0.45368745272874911,-0.0044588015845418161,-0.4198578662467003,0.0082572477833032509,
0.56579900000000005,-9.7908337429730281,-0.62277209051318749,-0.64206636164038933,-9.5974946184519538,0.04336457515764236,-0.48350745272874818,-0.0037868015845418102,-0.41906786624670023,0.0083142477833032524,
0.56723999999999997,-9.7908337429730281,-0.62277209051318749,-0.64206636164038933,-9.706234618451953,0.076991575157642322,-0.48150745272874751,-0.0074028015845418182,-0.42881786624670037,0.0092552477833032498,
0.56825000000000003,-9.4579215829730288,-0.65151146651318748,-0.68996662964038946,-9.706234618451953,0.076991575157642322,-0.48150745272874751,-0.0074028015845418182,-0.42881786624670037,0.0092552477833032498,
0.56867100000000004,-9.4579215829730288,-0.65151146651318748,-0.68996662964038946,-9.4850166184519527,0.11019857515764242,-0.47785745272874891,-0.0068778015845418206,-0.41679786624670023,0.0082342477833032557,
0.57012200000000002,-9.4579215829730288,-0.65151146651318748,-0.68996662964038946,-9.1900036184519536,-0.0091784248423576464,-0.53281745272874836,-0.0023668015845417778,-0.39647786624670034,0.0083372477833032477,
0.571546,-9.4579215829730288,-0.65151146651318748,-0.68996662964038946,-9.365102618451953,0.018091575157642259,-0.56200745272874819,-0.0026748015845418083,-0.40532786624670036,0.0081292477833032617,
0.57218000000000002,-9.9728386729730278,-0.66109191251318755,-0.91270366064038955,-9.365102618451953,0.018091575157642259,-0.56200745272874819,-0.0026748015845418083,-0.40532786624670036,0.0081292477833032617,
0.57295799999999997,-9.9728386729730278,-0.66109191251318755,-0.91270366064038955,-9.7167476184519526,0.11848357515764241,-0.52219745272874896,-0.0093228015845417955,-0.42428786624670023,0.0082002477833032494,
0.57440800000000003,-9.9728386729730278,-0.66109191251318755,-0.91270366064038955,-9.9166076184519536,0.094100575157642363,-0.59514745272874769,-0.010444801584541807,-0.43390786624670019,0.0090142477833032586,
0.57582100000000003,-9.9728386729730278,-0.66109191251318755,-0.91270366064038955,-10.112898618451952,0.096598575157642363,-0.55425745272874849,-0.0070488015845417973,-0.4425178662467002,0.0091722477833032501,
0.57610700000000004,-9.9728386729730278,-0.66109191251318755,-0.91270366064038955,-10.112898618451952,0.096598575157642363,-0.55425745272874849,-0.0070488015845417973,-0.4425178662467002,0.0091722477833032501,
0.57725499999999996,-9.9728386729730278,-0.66109191251318755,-0.91270366064038955,-10.134558618451953,0.13694657515764241,-0.37293745272874901,-0.0089218015845418108,-0.44722786624670019,0.0084272477833032544,
0.578712,-9.9728386729730278,-0.66109191251318755,-0.91270366064038955,-9.9859756184519526,0.074107575157642325,-0.44162745272874915,-0.0074788015845417832,-0.44017786624670019,0.0088012477833032676,
0.58004800000000001,-10.384760572973027,-0.65869729151318746,-0.93425819264038945,-9.9859756184519526,0.074107575157642325,-0.44162745272874915,-0.0074788015845417832,-0.44017786624670019,0.0088012477833032676,
0.58012600000000003,-10.384760572973027,-0.65869729151318746,-0.93425819264038945,-9.7198496184519527,-0.031958424842357669,-0.35274745272874775,0.001438198415458225,-0.42274786624670035,0.0076192477833032513,
0.58154899999999998,-10.384760572973027,-0.65869729151318746,-0.93425819264038945,-9.6033466184519529,0.055312575157642319,-0.43088745272874895,-0.0056068015845417984,-0.4206378662467003,0.0080982477833032585,
0.58300300000000005,-10.384760572973027,-0.65869729151318746,-0.93425819264038945,-9.6184836184519522,0.10211557515764236,-0.36318745272874864,-0.0078778015845418214,-0.41479786624670023,0.0083652477833032479,
0.58398099999999997,-10.267432972973028,-0.7592880505131876,-0.93425819264038945,-9.6184836184519522,0.10211557515764236,-0.36318745272874864,-0.0078778015845418214,-0.41479786624670023,0.0083652477833032479,
0.58441900000000002,-10.267432972973028,-0.7592880505131876,-0.93425819264038945,-9.8351176184519531,0.067561575157642384,-0.56499745272874868,-0.0047138015845418213,-0.42932786624670038,0.0084892477833032609,
0.58586300000000002,-10.267432972973028,-0.7592880505131876,-0.93425819264038945,-10.118118618451954,0.10834357515764237,-0.46483745272874799,-0.0095318015845418103,-0.44015786624670028,0.0084992477833032709,
0.58728800000000003,-10.267432972973028,-0.7592880505131876,-0.93425819264038945,-10.298578618451954,0.056495575157642364,-0.53074745272874857,-0.0081468015845417852,-0.45392786624670034,0.0083472477833032577,
0.58795799999999998,-10.267432972973028,-0.7592880505131876,-0.67559694164038941,-10.298578618451954,0.056495575157642364,-0.53074745272874857,-0.0081468015845417852,-0.45392786624670034,0.0083472477833032577,
0.58870999999999996,-10.267432972973028,-0.7592880505131876,-0.67559694164038941,-10.427878618451953,0.0021115751576423758,-0.49053745272874849,-0.0011328015845418204,-0.45643786624670035,0.0079682477833032672,
0.59018499999999996,-10.267432972973028,-0.7592880505131876,-0.67559694164038941,-10.502178618451953,0.08299657515764236,-0.45210745272874853,-0.0081788015845418172,-0.47144786624670032,0.0083442477833032547,
0.59160299999999999,-10.267432972973028,-0.7592880505131876,-0.67559694164038941,-10.090108618451954,0.010951575157642335,-0.3408774527287477,-0.0047818015845417783,-0.43823786624670036,0.0091572477833032628,
0.59186099999999997,-10.602738772973028,-0.62516671151318759,-0.87677845964038947,-10.090108618451954,0.010951575157642335,-0.3408774527287477,-0.0047818015845417783,-0.43823786624670036,0.0091572477833032628,
0.59304400000000002,-10.602738772973028,-0.62516671151318759,-0.87677845964038947,-9.9484916184519534,-0.058968424842357647,-0.29035745272874891,0.0012251984154582063,-0.43582786624670034,0.0069962477833032666,
0.59445499999999996,-10.602738772973028,-0.62516671151318759,-0.87677845964038947,-9.7953796184519533,-0.043358424842357746,-0.20985745272874823,-0.0016598015845418201,-0.4215378662467002,0.0067952477833032598,
0.59582400000000002,-10.559672872973028,-0.76886751551318755,-0.87677845964038947,-9.7953796184519533,-0.043358424842357746,-0.20985745272874823,-0.0016598015845418201,-0.4215378662467002,0.0067952477833032598,
0.59588300000000005,-10.559672872973028,-0.76886751551318755,-0.87677845964038947,-9.951627618451953,-0.17408842484235754,-0.16489745272874856,0.0075691984154582226,-0.43657786624670036,0.0080592477833032472,
0.59734799999999999,-10.559672872973028,-0.76886751551318755,-0.87677845964038947,-10.165498618451952,-0.12426842484235756,-0.26217745272874815,0.0033911984154582075,-0.44229786624670031,0.0087572477833032514,
0.59873900000000002,-10.559672872973028,-0.76886751551318755,-0.87677845964038947,-10.441818618451952,0.057289575157642325,-0.27778745272874872,-0.0063508015845418209,-0.46325786624670018,0.0082852477833032512,
0.599773,-10.559672872973028,-0.76886751551318755,-0.65404142864038939,-10.441818618451952,0.057289575157642325,-0.27778745272874872,-0.0063508015845418209,-0.46325786624670018,0.0082852477833032512,
0.60017100000000001,-10.559672872973028,-0.76886751551318755,-0.65404142864038939,-10.235338618451953,0.02211357515764234,-0.32451745272874888,-0.0044328015845417901,-0.45275786624670022,0.0085292477833032732,
0.60162700000000002,-10.559672872973028,-0.76886751551318755,-0.65404142864038939,-9.8739036184519531,0.07791457515764233,-0.32185745272874833,-0.0064748015845417783,-0.43328786624670035,0.0082292477833032507,
0.60303499999999999,-10.559672872973028,-0.76886751551318755,-0.65404142864038939,-9.6577416184519524,0.069345575157642392,-0.29675745272874821,-0.0086498015845418164,-0.41883786624670027,0.0067232477833032711,
0.60367000000000004,-10.878203572973026,-0.81916338551318757,-0.5965607146403894,-9.6577416184519524,0.069345575157642392,-0.29675745272874821,-0.0086498015845418164,-0.41883786624670027,0.0067232477833032711,
0.60446100000000003,-10.878203572973026,-0.81916338551318757,-0.5965607146403894,-9.5666866184519534,-0.031198424842357575,-0.30654745272874884,0.0019001984154581875,-0.41430786624670035,0.0089202477833032479,
0.60589499999999996,-10.878203572973026,-0.81916338551318757,-0.5965607146403894,-9.9036086184519529,0.088819575157642383,-0.26869745272874823,-0.0069598015845417915,-0.42773786624670018,0.0084912477833032629,
